file_name,field_name,position,table_short_name,category,record_count
FDA-CBER-2021-5683-1203436-1203447_27034_S1_M5_bnt162-01-A-adae.csv,STUDYID,1,bnt162-01-A-adae,phase1,501
FDA-CBER-2021-5683-1203436-1203447_27034_S1_M5_bnt162-01-A-adae.csv,USUBJID,2,bnt162-01-A-adae,phase1,501
FDA-CBER-2021-5683-1203436-1203447_27034_S1_M5_bnt162-01-A-adae.csv,SUBJID,3,bnt162-01-A-adae,phase1,501
FDA-CBER-2021-5683-1203436-1203447_27034_S1_M5_bnt162-01-A-adae.csv,SUBJIDN,4,bnt162-01-A-adae,phase1,501
FDA-CBER-2021-5683-1203436-1203447_27034_S1_M5_bnt162-01-A-adae.csv,COHORT,5,bnt162-01-A-adae,phase1,501
FDA-CBER-2021-5683-1203436-1203447_27034_S1_M5_bnt162-01-A-adae.csv,COHORTN,6,bnt162-01-A-adae,phase1,501
FDA-CBER-2021-5683-1203436-1203447_27034_S1_M5_bnt162-01-A-adae.csv,GROUP,7,bnt162-01-A-adae,phase1,501
FDA-CBER-2021-5683-1203436-1203447_27034_S1_M5_bnt162-01-A-adae.csv,GROUPN,8,bnt162-01-A-adae,phase1,501
FDA-CBER-2021-5683-1203436-1203447_27034_S1_M5_bnt162-01-A-adae.csv,TRTP,9,bnt162-01-A-adae,phase1,501
FDA-CBER-2021-5683-1203436-1203447_27034_S1_M5_bnt162-01-A-adae.csv,TRTPN,10,bnt162-01-A-adae,phase1,501
FDA-CBER-2021-5683-1203436-1203447_27034_S1_M5_bnt162-01-A-adae.csv,TRTA,11,bnt162-01-A-adae,phase1,501
FDA-CBER-2021-5683-1203436-1203447_27034_S1_M5_bnt162-01-A-adae.csv,TRTAN,12,bnt162-01-A-adae,phase1,501
FDA-CBER-2021-5683-1203436-1203447_27034_S1_M5_bnt162-01-A-adae.csv,AESEQ,13,bnt162-01-A-adae,phase1,501
FDA-CBER-2021-5683-1203436-1203447_27034_S1_M5_bnt162-01-A-adae.csv,AEGRPID,14,bnt162-01-A-adae,phase1,501
FDA-CBER-2021-5683-1203436-1203447_27034_S1_M5_bnt162-01-A-adae.csv,AESPID,15,bnt162-01-A-adae,phase1,501
FDA-CBER-2021-5683-1203436-1203447_27034_S1_M5_bnt162-01-A-adae.csv,AETERM,16,bnt162-01-A-adae,phase1,501
FDA-CBER-2021-5683-1203436-1203447_27034_S1_M5_bnt162-01-A-adae.csv,AEMODIFY,17,bnt162-01-A-adae,phase1,501
FDA-CBER-2021-5683-1203436-1203447_27034_S1_M5_bnt162-01-A-adae.csv,AELLT,18,bnt162-01-A-adae,phase1,501
FDA-CBER-2021-5683-1203436-1203447_27034_S1_M5_bnt162-01-A-adae.csv,AELLTCD,19,bnt162-01-A-adae,phase1,501
FDA-CBER-2021-5683-1203436-1203447_27034_S1_M5_bnt162-01-A-adae.csv,AEDECOD,20,bnt162-01-A-adae,phase1,501
FDA-CBER-2021-5683-1203436-1203447_27034_S1_M5_bnt162-01-A-adae.csv,AEPTCD,21,bnt162-01-A-adae,phase1,501
FDA-CBER-2021-5683-1203436-1203447_27034_S1_M5_bnt162-01-A-adae.csv,AEHLT,22,bnt162-01-A-adae,phase1,501
FDA-CBER-2021-5683-1203436-1203447_27034_S1_M5_bnt162-01-A-adae.csv,AEHLTCD,23,bnt162-01-A-adae,phase1,501
FDA-CBER-2021-5683-1203436-1203447_27034_S1_M5_bnt162-01-A-adae.csv,AEHLGT,24,bnt162-01-A-adae,phase1,501
FDA-CBER-2021-5683-1203436-1203447_27034_S1_M5_bnt162-01-A-adae.csv,AEHLGTCD,25,bnt162-01-A-adae,phase1,501
FDA-CBER-2021-5683-1203436-1203447_27034_S1_M5_bnt162-01-A-adae.csv,AECAT,26,bnt162-01-A-adae,phase1,501
FDA-CBER-2021-5683-1203436-1203447_27034_S1_M5_bnt162-01-A-adae.csv,AEBODSYS,27,bnt162-01-A-adae,phase1,501
FDA-CBER-2021-5683-1203436-1203447_27034_S1_M5_bnt162-01-A-adae.csv,AEBDSYCD,28,bnt162-01-A-adae,phase1,501
FDA-CBER-2021-5683-1203436-1203447_27034_S1_M5_bnt162-01-A-adae.csv,AESOC,29,bnt162-01-A-adae,phase1,501
FDA-CBER-2021-5683-1203436-1203447_27034_S1_M5_bnt162-01-A-adae.csv,AESOCCD,30,bnt162-01-A-adae,phase1,501
FDA-CBER-2021-5683-1203436-1203447_27034_S1_M5_bnt162-01-A-adae.csv,AESEV,31,bnt162-01-A-adae,phase1,501
FDA-CBER-2021-5683-1203436-1203447_27034_S1_M5_bnt162-01-A-adae.csv,AETOXGR,32,bnt162-01-A-adae,phase1,501
FDA-CBER-2021-5683-1203436-1203447_27034_S1_M5_bnt162-01-A-adae.csv,ASEV,33,bnt162-01-A-adae,phase1,501
FDA-CBER-2021-5683-1203436-1203447_27034_S1_M5_bnt162-01-A-adae.csv,ASEVN,34,bnt162-01-A-adae,phase1,501
FDA-CBER-2021-5683-1203436-1203447_27034_S1_M5_bnt162-01-A-adae.csv,AESER,35,bnt162-01-A-adae,phase1,501
FDA-CBER-2021-5683-1203436-1203447_27034_S1_M5_bnt162-01-A-adae.csv,AESERN,36,bnt162-01-A-adae,phase1,501
FDA-CBER-2021-5683-1203436-1203447_27034_S1_M5_bnt162-01-A-adae.csv,AEACN,37,bnt162-01-A-adae,phase1,501
FDA-CBER-2021-5683-1203436-1203447_27034_S1_M5_bnt162-01-A-adae.csv,AACN,38,bnt162-01-A-adae,phase1,501
FDA-CBER-2021-5683-1203436-1203447_27034_S1_M5_bnt162-01-A-adae.csv,AACNN,39,bnt162-01-A-adae,phase1,501
FDA-CBER-2021-5683-1203436-1203447_27034_S1_M5_bnt162-01-A-adae.csv,AEREL,40,bnt162-01-A-adae,phase1,501
FDA-CBER-2021-5683-1203436-1203447_27034_S1_M5_bnt162-01-A-adae.csv,AREL,41,bnt162-01-A-adae,phase1,501
FDA-CBER-2021-5683-1203436-1203447_27034_S1_M5_bnt162-01-A-adae.csv,ARELN,42,bnt162-01-A-adae,phase1,501
FDA-CBER-2021-5683-1203436-1203447_27034_S1_M5_bnt162-01-A-adae.csv,AEOUT,43,bnt162-01-A-adae,phase1,501
FDA-CBER-2021-5683-1203436-1203447_27034_S1_M5_bnt162-01-A-adae.csv,AOUT,44,bnt162-01-A-adae,phase1,501
FDA-CBER-2021-5683-1203436-1203447_27034_S1_M5_bnt162-01-A-adae.csv,AOUTN,45,bnt162-01-A-adae,phase1,501
FDA-CBER-2021-5683-1203436-1203447_27034_S1_M5_bnt162-01-A-adae.csv,AESCONG,46,bnt162-01-A-adae,phase1,501
FDA-CBER-2021-5683-1203436-1203447_27034_S1_M5_bnt162-01-A-adae.csv,AESDISAB,47,bnt162-01-A-adae,phase1,501
FDA-CBER-2021-5683-1203436-1203447_27034_S1_M5_bnt162-01-A-adae.csv,AESDTH,48,bnt162-01-A-adae,phase1,501
FDA-CBER-2021-5683-1203436-1203447_27034_S1_M5_bnt162-01-A-adae.csv,AESHOSP,49,bnt162-01-A-adae,phase1,501
FDA-CBER-2021-5683-1203436-1203447_27034_S1_M5_bnt162-01-A-adae.csv,AESLIFE,50,bnt162-01-A-adae,phase1,501
FDA-CBER-2021-5683-1203436-1203447_27034_S1_M5_bnt162-01-A-adae.csv,AESMIE,51,bnt162-01-A-adae,phase1,501
FDA-CBER-2021-5683-1203436-1203447_27034_S1_M5_bnt162-01-A-adae.csv,AECONTRT,52,bnt162-01-A-adae,phase1,501
FDA-CBER-2021-5683-1203436-1203447_27034_S1_M5_bnt162-01-A-adae.csv,AETRTEM,53,bnt162-01-A-adae,phase1,501
FDA-CBER-2021-5683-1203436-1203447_27034_S1_M5_bnt162-01-A-adae.csv,AEDLT,54,bnt162-01-A-adae,phase1,501
FDA-CBER-2021-5683-1203436-1203447_27034_S1_M5_bnt162-01-A-adae.csv,AEEPRELI,55,bnt162-01-A-adae,phase1,501
FDA-CBER-2021-5683-1203436-1203447_27034_S1_M5_bnt162-01-A-adae.csv,AEEMREL,56,bnt162-01-A-adae,phase1,501
FDA-CBER-2021-5683-1203436-1203447_27034_S1_M5_bnt162-01-A-adae.csv,AEEMS,57,bnt162-01-A-adae,phase1,501
FDA-CBER-2021-5683-1203436-1203447_27034_S1_M5_bnt162-01-A-adae.csv,AEEMSREL,58,bnt162-01-A-adae,phase1,501
FDA-CBER-2021-5683-1203436-1203447_27034_S1_M5_bnt162-01-A-adae.csv,AEEMSER,59,bnt162-01-A-adae,phase1,501
FDA-CBER-2021-5683-1203436-1203447_27034_S1_M5_bnt162-01-A-adae.csv,AEEMSERR,60,bnt162-01-A-adae,phase1,501
FDA-CBER-2021-5683-1203436-1203447_27034_S1_M5_bnt162-01-A-adae.csv,PTDIAFL,61,bnt162-01-A-adae,phase1,501
FDA-CBER-2021-5683-1203436-1203447_27034_S1_M5_bnt162-01-A-adae.csv,AESTDTC,62,bnt162-01-A-adae,phase1,501
FDA-CBER-2021-5683-1203436-1203447_27034_S1_M5_bnt162-01-A-adae.csv,ASTDT,63,bnt162-01-A-adae,phase1,501
FDA-CBER-2021-5683-1203436-1203447_27034_S1_M5_bnt162-01-A-adae.csv,ASTTM,64,bnt162-01-A-adae,phase1,501
FDA-CBER-2021-5683-1203436-1203447_27034_S1_M5_bnt162-01-A-adae.csv,ASTDTM,65,bnt162-01-A-adae,phase1,501
FDA-CBER-2021-5683-1203436-1203447_27034_S1_M5_bnt162-01-A-adae.csv,AEENDTC,66,bnt162-01-A-adae,phase1,501
FDA-CBER-2021-5683-1203436-1203447_27034_S1_M5_bnt162-01-A-adae.csv,AENDT,67,bnt162-01-A-adae,phase1,501
FDA-CBER-2021-5683-1203436-1203447_27034_S1_M5_bnt162-01-A-adae.csv,AENTM,68,bnt162-01-A-adae,phase1,501
FDA-CBER-2021-5683-1203436-1203447_27034_S1_M5_bnt162-01-A-adae.csv,AENDTM,69,bnt162-01-A-adae,phase1,501
FDA-CBER-2021-5683-1203436-1203447_27034_S1_M5_bnt162-01-A-adae.csv,AESTDY,70,bnt162-01-A-adae,phase1,501
FDA-CBER-2021-5683-1203436-1203447_27034_S1_M5_bnt162-01-A-adae.csv,ASTDY,71,bnt162-01-A-adae,phase1,501
FDA-CBER-2021-5683-1203436-1203447_27034_S1_M5_bnt162-01-A-adae.csv,AEENDY,72,bnt162-01-A-adae,phase1,501
FDA-CBER-2021-5683-1203436-1203447_27034_S1_M5_bnt162-01-A-adae.csv,AENDY,73,bnt162-01-A-adae,phase1,501
FDA-CBER-2021-5683-1203436-1203447_27034_S1_M5_bnt162-01-A-adae.csv,ADURN,74,bnt162-01-A-adae,phase1,501
FDA-CBER-2021-5683-1203436-1203447_27034_S1_M5_bnt162-01-A-adae.csv,ADURU,75,bnt162-01-A-adae,phase1,501
FDA-CBER-2021-5683-1203436-1203447_27034_S1_M5_bnt162-01-A-adae.csv,LSTDD,76,bnt162-01-A-adae,phase1,501
FDA-CBER-2021-5683-1203436-1203447_27034_S1_M5_bnt162-01-A-adae.csv,AEENRTPT,77,bnt162-01-A-adae,phase1,501
FDA-CBER-2021-5683-1203436-1203447_27034_S1_M5_bnt162-01-A-adae.csv,AEENTPT,78,bnt162-01-A-adae,phase1,501
FDA-CBER-2021-5683-1203436-1203447_27034_S1_M5_bnt162-01-A-adae.csv,TRTEMFL,79,bnt162-01-A-adae,phase1,501
FDA-CBER-2021-5683-1203436-1203447_27034_S1_M5_bnt162-01-A-adae.csv,TMINT1FL,80,bnt162-01-A-adae,phase1,501
FDA-CBER-2021-5683-1203436-1203447_27034_S1_M5_bnt162-01-A-adae.csv,TMINT2FL,81,bnt162-01-A-adae,phase1,501
FDA-CBER-2021-5683-1203436-1203447_27034_S1_M5_bnt162-01-A-adae.csv,TMINT3FL,82,bnt162-01-A-adae,phase1,501
FDA-CBER-2021-5683-1203436-1203447_27034_S1_M5_bnt162-01-A-adae.csv,TMINT4FL,83,bnt162-01-A-adae,phase1,501
FDA-CBER-2021-5683-1203436-1203447_27034_S1_M5_bnt162-01-A-adae.csv,TMINT5FL,84,bnt162-01-A-adae,phase1,501
FDA-CBER-2021-5683-1203436-1203447_27034_S1_M5_bnt162-01-A-adae.csv,EPOCH,85,bnt162-01-A-adae,phase1,501
FDA-CBER-2021-5683-1203436-1203447_27034_S1_M5_bnt162-01-A-adae.csv,AGE,86,bnt162-01-A-adae,phase1,501
FDA-CBER-2021-5683-1203436-1203447_27034_S1_M5_bnt162-01-A-adae.csv,AGEU,87,bnt162-01-A-adae,phase1,501
FDA-CBER-2021-5683-1203436-1203447_27034_S1_M5_bnt162-01-A-adae.csv,SEX,88,bnt162-01-A-adae,phase1,501
FDA-CBER-2021-5683-1203436-1203447_27034_S1_M5_bnt162-01-A-adae.csv,SEXN,89,bnt162-01-A-adae,phase1,501
FDA-CBER-2021-5683-1203436-1203447_27034_S1_M5_bnt162-01-A-adae.csv,RACE,90,bnt162-01-A-adae,phase1,501
FDA-CBER-2021-5683-1203436-1203447_27034_S1_M5_bnt162-01-A-adae.csv,RACEN,91,bnt162-01-A-adae,phase1,501
FDA-CBER-2021-5683-1203436-1203447_27034_S1_M5_bnt162-01-A-adae.csv,SCRFL,92,bnt162-01-A-adae,phase1,501
FDA-CBER-2021-5683-1203436-1203447_27034_S1_M5_bnt162-01-A-adae.csv,SCRFN,93,bnt162-01-A-adae,phase1,501
FDA-CBER-2021-5683-1203436-1203447_27034_S1_M5_bnt162-01-A-adae.csv,SAFFL,94,bnt162-01-A-adae,phase1,501
FDA-CBER-2021-5683-1203436-1203447_27034_S1_M5_bnt162-01-A-adae.csv,SAFFN,95,bnt162-01-A-adae,phase1,501
FDA-CBER-2021-5683-1203436-1203447_27034_S1_M5_bnt162-01-A-adae.csv,SAFBFL,96,bnt162-01-A-adae,phase1,501
FDA-CBER-2021-5683-1203436-1203447_27034_S1_M5_bnt162-01-A-adae.csv,SAFBFN,97,bnt162-01-A-adae,phase1,501
FDA-CBER-2021-5683-1203436-1203447_27034_S1_M5_bnt162-01-A-adae.csv,IMMFL,98,bnt162-01-A-adae,phase1,501
FDA-CBER-2021-5683-1203436-1203447_27034_S1_M5_bnt162-01-A-adae.csv,IMMFN,99,bnt162-01-A-adae,phase1,501
FDA-CBER-2021-5683-1203436-1203447_27034_S1_M5_bnt162-01-A-adae.csv,PPROTFL,100,bnt162-01-A-adae,phase1,501
FDA-CBER-2021-5683-1203436-1203447_27034_S1_M5_bnt162-01-A-adae.csv,PPROTFN,101,bnt162-01-A-adae,phase1,501
FDA-CBER-2021-5683-1203436-1203447_27034_S1_M5_bnt162-01-A-adae.csv,CP7FL,102,bnt162-01-A-adae,phase1,501
FDA-CBER-2021-5683-1203436-1203447_27034_S1_M5_bnt162-01-A-adae.csv,CP7FN,103,bnt162-01-A-adae,phase1,501
FDA-CBER-2021-5683-1203436-1203447_27034_S1_M5_bnt162-01-A-adae.csv,CPBP28FL,104,bnt162-01-A-adae,phase1,501
FDA-CBER-2021-5683-1203436-1203447_27034_S1_M5_bnt162-01-A-adae.csv,CPBP28FN,105,bnt162-01-A-adae,phase1,501
FDA-CBER-2021-5683-1203436-1203447_27034_S1_M5_bnt162-01-A-adae.csv,CB7FL,106,bnt162-01-A-adae,phase1,501
FDA-CBER-2021-5683-1203436-1203447_27034_S1_M5_bnt162-01-A-adae.csv,CB7FN,107,bnt162-01-A-adae,phase1,501
FDA-CBER-2021-5683-1203436-1203447_27034_S1_M5_bnt162-01-A-adae.csv,CB28FL,108,bnt162-01-A-adae,phase1,501
FDA-CBER-2021-5683-1203436-1203447_27034_S1_M5_bnt162-01-A-adae.csv,CB28FN,109,bnt162-01-A-adae,phase1,501
FDA-CBER-2021-5683-1203436-1203447_27034_S1_M5_bnt162-01-A-adae.csv,CPB28FL,110,bnt162-01-A-adae,phase1,501
FDA-CBER-2021-5683-1203436-1203447_27034_S1_M5_bnt162-01-A-adae.csv,CPB28FN,111,bnt162-01-A-adae,phase1,501
FDA-CBER-2021-5683-1203436-1203447_27034_S1_M5_bnt162-01-A-adae.csv,COMPLFL,112,bnt162-01-A-adae,phase1,501
FDA-CBER-2021-5683-1203436-1203447_27034_S1_M5_bnt162-01-A-adae.csv,COMPLFN,113,bnt162-01-A-adae,phase1,501
FDA-CBER-2021-5683-1203436-1203447_27034_S1_M5_bnt162-01-A-adae.csv,TRTSDT,114,bnt162-01-A-adae,phase1,501
FDA-CBER-2021-5683-1203436-1203447_27034_S1_M5_bnt162-01-A-adae.csv,TRTSTM,115,bnt162-01-A-adae,phase1,501
FDA-CBER-2021-5683-1203436-1203447_27034_S1_M5_bnt162-01-A-adae.csv,TRTSDTM,116,bnt162-01-A-adae,phase1,501
FDA-CBER-2021-5683-1203436-1203447_27034_S1_M5_bnt162-01-A-adae.csv,TRTEDT,117,bnt162-01-A-adae,phase1,501
FDA-CBER-2021-5683-1203436-1203447_27034_S1_M5_bnt162-01-A-adae.csv,TRTETM,118,bnt162-01-A-adae,phase1,501
FDA-CBER-2021-5683-1203436-1203447_27034_S1_M5_bnt162-01-A-adae.csv,TRTEDTM,119,bnt162-01-A-adae,phase1,501
FDA-CBER-2021-5683-1203436-1203447_27034_S1_M5_bnt162-01-A-adae.csv,PRIMDT,120,bnt162-01-A-adae,phase1,501
FDA-CBER-2021-5683-1203436-1203447_27034_S1_M5_bnt162-01-A-adae.csv,PRIMTM,121,bnt162-01-A-adae,phase1,501
FDA-CBER-2021-5683-1203436-1203447_27034_S1_M5_bnt162-01-A-adae.csv,PRIMDTM,122,bnt162-01-A-adae,phase1,501
FDA-CBER-2021-5683-1203436-1203447_27034_S1_M5_bnt162-01-A-adae.csv,BOIMDT,123,bnt162-01-A-adae,phase1,501
FDA-CBER-2021-5683-1203436-1203447_27034_S1_M5_bnt162-01-A-adae.csv,BOIMTM,124,bnt162-01-A-adae,phase1,501
FDA-CBER-2021-5683-1203436-1203447_27034_S1_M5_bnt162-01-A-adae.csv,BOIMDTM,125,bnt162-01-A-adae,phase1,501
FDA-CBER-2021-5683-1203436-1203447_27034_S1_M5_bnt162-01-A-adae.csv,ALLOCDT,126,bnt162-01-A-adae,phase1,501
FDA-CBER-2021-5683-1203436-1203447_27034_S1_M5_bnt162-01-A-adae.csv,ALLOCTM,127,bnt162-01-A-adae,phase1,501
FDA-CBER-2021-5683-1203436-1203447_27034_S1_M5_bnt162-01-A-adae.csv,ALLOCDTM,128,bnt162-01-A-adae,phase1,501
FDA-CBER-2021-5683-1203448-1203540_27034_S1_M5_bnt162-01-A-adcevd.csv,STUDYID,1,bnt162-01-A-adcevd,phase1,3734
FDA-CBER-2021-5683-1203448-1203540_27034_S1_M5_bnt162-01-A-adcevd.csv,USUBJID,2,bnt162-01-A-adcevd,phase1,3734
FDA-CBER-2021-5683-1203448-1203540_27034_S1_M5_bnt162-01-A-adcevd.csv,SUBJID,3,bnt162-01-A-adcevd,phase1,3734
FDA-CBER-2021-5683-1203448-1203540_27034_S1_M5_bnt162-01-A-adcevd.csv,SUBJIDN,4,bnt162-01-A-adcevd,phase1,3734
FDA-CBER-2021-5683-1203448-1203540_27034_S1_M5_bnt162-01-A-adcevd.csv,COHORT,5,bnt162-01-A-adcevd,phase1,3734
FDA-CBER-2021-5683-1203448-1203540_27034_S1_M5_bnt162-01-A-adcevd.csv,COHORTN,6,bnt162-01-A-adcevd,phase1,3734
FDA-CBER-2021-5683-1203448-1203540_27034_S1_M5_bnt162-01-A-adcevd.csv,GROUP,7,bnt162-01-A-adcevd,phase1,3734
FDA-CBER-2021-5683-1203448-1203540_27034_S1_M5_bnt162-01-A-adcevd.csv,GROUPN,8,bnt162-01-A-adcevd,phase1,3734
FDA-CBER-2021-5683-1203448-1203540_27034_S1_M5_bnt162-01-A-adcevd.csv,TRTP,9,bnt162-01-A-adcevd,phase1,3734
FDA-CBER-2021-5683-1203448-1203540_27034_S1_M5_bnt162-01-A-adcevd.csv,TRTPN,10,bnt162-01-A-adcevd,phase1,3734
FDA-CBER-2021-5683-1203448-1203540_27034_S1_M5_bnt162-01-A-adcevd.csv,TRTA,11,bnt162-01-A-adcevd,phase1,3734
FDA-CBER-2021-5683-1203448-1203540_27034_S1_M5_bnt162-01-A-adcevd.csv,TRTAN,12,bnt162-01-A-adcevd,phase1,3734
FDA-CBER-2021-5683-1203448-1203540_27034_S1_M5_bnt162-01-A-adcevd.csv,CESEQ,13,bnt162-01-A-adcevd,phase1,3734
FDA-CBER-2021-5683-1203448-1203540_27034_S1_M5_bnt162-01-A-adcevd.csv,CEGRPID,14,bnt162-01-A-adcevd,phase1,3734
FDA-CBER-2021-5683-1203448-1203540_27034_S1_M5_bnt162-01-A-adcevd.csv,CETERM,15,bnt162-01-A-adcevd,phase1,3734
FDA-CBER-2021-5683-1203448-1203540_27034_S1_M5_bnt162-01-A-adcevd.csv,CEDECOD,16,bnt162-01-A-adcevd,phase1,3734
FDA-CBER-2021-5683-1203448-1203540_27034_S1_M5_bnt162-01-A-adcevd.csv,CEBODSYS,17,bnt162-01-A-adcevd,phase1,3734
FDA-CBER-2021-5683-1203448-1203540_27034_S1_M5_bnt162-01-A-adcevd.csv,CEBDSYCD,18,bnt162-01-A-adcevd,phase1,3734
FDA-CBER-2021-5683-1203448-1203540_27034_S1_M5_bnt162-01-A-adcevd.csv,CELLT,19,bnt162-01-A-adcevd,phase1,3734
FDA-CBER-2021-5683-1203448-1203540_27034_S1_M5_bnt162-01-A-adcevd.csv,CELLTCD,20,bnt162-01-A-adcevd,phase1,3734
FDA-CBER-2021-5683-1203448-1203540_27034_S1_M5_bnt162-01-A-adcevd.csv,CEPTCD,21,bnt162-01-A-adcevd,phase1,3734
FDA-CBER-2021-5683-1203448-1203540_27034_S1_M5_bnt162-01-A-adcevd.csv,CECAT,22,bnt162-01-A-adcevd,phase1,3734
FDA-CBER-2021-5683-1203448-1203540_27034_S1_M5_bnt162-01-A-adcevd.csv,CESCAT,23,bnt162-01-A-adcevd,phase1,3734
FDA-CBER-2021-5683-1203448-1203540_27034_S1_M5_bnt162-01-A-adcevd.csv,ACAT1,24,bnt162-01-A-adcevd,phase1,3734
FDA-CBER-2021-5683-1203448-1203540_27034_S1_M5_bnt162-01-A-adcevd.csv,CESTDTC,25,bnt162-01-A-adcevd,phase1,3734
FDA-CBER-2021-5683-1203448-1203540_27034_S1_M5_bnt162-01-A-adcevd.csv,ASTDT,26,bnt162-01-A-adcevd,phase1,3734
FDA-CBER-2021-5683-1203448-1203540_27034_S1_M5_bnt162-01-A-adcevd.csv,CEENDTC,27,bnt162-01-A-adcevd,phase1,3734
FDA-CBER-2021-5683-1203448-1203540_27034_S1_M5_bnt162-01-A-adcevd.csv,AENDT,28,bnt162-01-A-adcevd,phase1,3734
FDA-CBER-2021-5683-1203448-1203540_27034_S1_M5_bnt162-01-A-adcevd.csv,ASTDY,29,bnt162-01-A-adcevd,phase1,3734
FDA-CBER-2021-5683-1203448-1203540_27034_S1_M5_bnt162-01-A-adcevd.csv,CESTDY,30,bnt162-01-A-adcevd,phase1,3734
FDA-CBER-2021-5683-1203448-1203540_27034_S1_M5_bnt162-01-A-adcevd.csv,AENDY,31,bnt162-01-A-adcevd,phase1,3734
FDA-CBER-2021-5683-1203448-1203540_27034_S1_M5_bnt162-01-A-adcevd.csv,CEENDY,32,bnt162-01-A-adcevd,phase1,3734
FDA-CBER-2021-5683-1203448-1203540_27034_S1_M5_bnt162-01-A-adcevd.csv,ADURN,33,bnt162-01-A-adcevd,phase1,3734
FDA-CBER-2021-5683-1203448-1203540_27034_S1_M5_bnt162-01-A-adcevd.csv,ADURU,34,bnt162-01-A-adcevd,phase1,3734
FDA-CBER-2021-5683-1203448-1203540_27034_S1_M5_bnt162-01-A-adcevd.csv,CEDUR,35,bnt162-01-A-adcevd,phase1,3734
FDA-CBER-2021-5683-1203448-1203540_27034_S1_M5_bnt162-01-A-adcevd.csv,CEENRTPT,36,bnt162-01-A-adcevd,phase1,3734
FDA-CBER-2021-5683-1203448-1203540_27034_S1_M5_bnt162-01-A-adcevd.csv,CEENTPT,37,bnt162-01-A-adcevd,phase1,3734
FDA-CBER-2021-5683-1203448-1203540_27034_S1_M5_bnt162-01-A-adcevd.csv,ATPT,38,bnt162-01-A-adcevd,phase1,3734
FDA-CBER-2021-5683-1203448-1203540_27034_S1_M5_bnt162-01-A-adcevd.csv,ATPTN,39,bnt162-01-A-adcevd,phase1,3734
FDA-CBER-2021-5683-1203448-1203540_27034_S1_M5_bnt162-01-A-adcevd.csv,CETPT,40,bnt162-01-A-adcevd,phase1,3734
FDA-CBER-2021-5683-1203448-1203540_27034_S1_M5_bnt162-01-A-adcevd.csv,ATPTREF,41,bnt162-01-A-adcevd,phase1,3734
FDA-CBER-2021-5683-1203448-1203540_27034_S1_M5_bnt162-01-A-adcevd.csv,CETPTREF,42,bnt162-01-A-adcevd,phase1,3734
FDA-CBER-2021-5683-1203448-1203540_27034_S1_M5_bnt162-01-A-adcevd.csv,CEOCCUR,43,bnt162-01-A-adcevd,phase1,3734
FDA-CBER-2021-5683-1203448-1203540_27034_S1_M5_bnt162-01-A-adcevd.csv,CEPRESP,44,bnt162-01-A-adcevd,phase1,3734
FDA-CBER-2021-5683-1203448-1203540_27034_S1_M5_bnt162-01-A-adcevd.csv,AOCCLRFL,45,bnt162-01-A-adcevd,phase1,3734
FDA-CBER-2021-5683-1203448-1203540_27034_S1_M5_bnt162-01-A-adcevd.csv,AOCCL3FL,46,bnt162-01-A-adcevd,phase1,3734
FDA-CBER-2021-5683-1203448-1203540_27034_S1_M5_bnt162-01-A-adcevd.csv,AOCCLPFL,47,bnt162-01-A-adcevd,phase1,3734
FDA-CBER-2021-5683-1203448-1203540_27034_S1_M5_bnt162-01-A-adcevd.csv,AOCCXPFL,48,bnt162-01-A-adcevd,phase1,3734
FDA-CBER-2021-5683-1203448-1203540_27034_S1_M5_bnt162-01-A-adcevd.csv,AOCCLBFL,49,bnt162-01-A-adcevd,phase1,3734
FDA-CBER-2021-5683-1203448-1203540_27034_S1_M5_bnt162-01-A-adcevd.csv,AOCCXBFL,50,bnt162-01-A-adcevd,phase1,3734
FDA-CBER-2021-5683-1203448-1203540_27034_S1_M5_bnt162-01-A-adcevd.csv,AOCCSRFL,51,bnt162-01-A-adcevd,phase1,3734
FDA-CBER-2021-5683-1203448-1203540_27034_S1_M5_bnt162-01-A-adcevd.csv,AOCCS3FL,52,bnt162-01-A-adcevd,phase1,3734
FDA-CBER-2021-5683-1203448-1203540_27034_S1_M5_bnt162-01-A-adcevd.csv,AOCCSPFL,53,bnt162-01-A-adcevd,phase1,3734
FDA-CBER-2021-5683-1203448-1203540_27034_S1_M5_bnt162-01-A-adcevd.csv,AOCCYPFL,54,bnt162-01-A-adcevd,phase1,3734
FDA-CBER-2021-5683-1203448-1203540_27034_S1_M5_bnt162-01-A-adcevd.csv,AOCCSBFL,55,bnt162-01-A-adcevd,phase1,3734
FDA-CBER-2021-5683-1203448-1203540_27034_S1_M5_bnt162-01-A-adcevd.csv,AOCCYBFL,56,bnt162-01-A-adcevd,phase1,3734
FDA-CBER-2021-5683-1203448-1203540_27034_S1_M5_bnt162-01-A-adcevd.csv,ASEV,57,bnt162-01-A-adcevd,phase1,3734
FDA-CBER-2021-5683-1203448-1203540_27034_S1_M5_bnt162-01-A-adcevd.csv,ASEVN,58,bnt162-01-A-adcevd,phase1,3734
FDA-CBER-2021-5683-1203448-1203540_27034_S1_M5_bnt162-01-A-adcevd.csv,CESEV,59,bnt162-01-A-adcevd,phase1,3734
FDA-CBER-2021-5683-1203448-1203540_27034_S1_M5_bnt162-01-A-adcevd.csv,SEVGR1,60,bnt162-01-A-adcevd,phase1,3734
FDA-CBER-2021-5683-1203448-1203540_27034_S1_M5_bnt162-01-A-adcevd.csv,SEVGR1N,61,bnt162-01-A-adcevd,phase1,3734
FDA-CBER-2021-5683-1203448-1203540_27034_S1_M5_bnt162-01-A-adcevd.csv,AGE,62,bnt162-01-A-adcevd,phase1,3734
FDA-CBER-2021-5683-1203448-1203540_27034_S1_M5_bnt162-01-A-adcevd.csv,AGEU,63,bnt162-01-A-adcevd,phase1,3734
FDA-CBER-2021-5683-1203448-1203540_27034_S1_M5_bnt162-01-A-adcevd.csv,SEX,64,bnt162-01-A-adcevd,phase1,3734
FDA-CBER-2021-5683-1203448-1203540_27034_S1_M5_bnt162-01-A-adcevd.csv,SEXN,65,bnt162-01-A-adcevd,phase1,3734
FDA-CBER-2021-5683-1203448-1203540_27034_S1_M5_bnt162-01-A-adcevd.csv,RACE,66,bnt162-01-A-adcevd,phase1,3734
FDA-CBER-2021-5683-1203448-1203540_27034_S1_M5_bnt162-01-A-adcevd.csv,RACEN,67,bnt162-01-A-adcevd,phase1,3734
FDA-CBER-2021-5683-1203448-1203540_27034_S1_M5_bnt162-01-A-adcevd.csv,SCRFL,68,bnt162-01-A-adcevd,phase1,3734
FDA-CBER-2021-5683-1203448-1203540_27034_S1_M5_bnt162-01-A-adcevd.csv,SCRFN,69,bnt162-01-A-adcevd,phase1,3734
FDA-CBER-2021-5683-1203448-1203540_27034_S1_M5_bnt162-01-A-adcevd.csv,SAFFL,70,bnt162-01-A-adcevd,phase1,3734
FDA-CBER-2021-5683-1203448-1203540_27034_S1_M5_bnt162-01-A-adcevd.csv,SAFFN,71,bnt162-01-A-adcevd,phase1,3734
FDA-CBER-2021-5683-1203448-1203540_27034_S1_M5_bnt162-01-A-adcevd.csv,SAFBFL,72,bnt162-01-A-adcevd,phase1,3734
FDA-CBER-2021-5683-1203448-1203540_27034_S1_M5_bnt162-01-A-adcevd.csv,SAFBFN,73,bnt162-01-A-adcevd,phase1,3734
FDA-CBER-2021-5683-1203448-1203540_27034_S1_M5_bnt162-01-A-adcevd.csv,IMMFL,74,bnt162-01-A-adcevd,phase1,3734
FDA-CBER-2021-5683-1203448-1203540_27034_S1_M5_bnt162-01-A-adcevd.csv,IMMFN,75,bnt162-01-A-adcevd,phase1,3734
FDA-CBER-2021-5683-1203448-1203540_27034_S1_M5_bnt162-01-A-adcevd.csv,PPROTFL,76,bnt162-01-A-adcevd,phase1,3734
FDA-CBER-2021-5683-1203448-1203540_27034_S1_M5_bnt162-01-A-adcevd.csv,PPROTFN,77,bnt162-01-A-adcevd,phase1,3734
FDA-CBER-2021-5683-1203448-1203540_27034_S1_M5_bnt162-01-A-adcevd.csv,CP7FL,78,bnt162-01-A-adcevd,phase1,3734
FDA-CBER-2021-5683-1203448-1203540_27034_S1_M5_bnt162-01-A-adcevd.csv,CP7FN,79,bnt162-01-A-adcevd,phase1,3734
FDA-CBER-2021-5683-1203448-1203540_27034_S1_M5_bnt162-01-A-adcevd.csv,CPBP28FL,80,bnt162-01-A-adcevd,phase1,3734
FDA-CBER-2021-5683-1203448-1203540_27034_S1_M5_bnt162-01-A-adcevd.csv,CPBP28FN,81,bnt162-01-A-adcevd,phase1,3734
FDA-CBER-2021-5683-1203448-1203540_27034_S1_M5_bnt162-01-A-adcevd.csv,CB7FL,82,bnt162-01-A-adcevd,phase1,3734
FDA-CBER-2021-5683-1203448-1203540_27034_S1_M5_bnt162-01-A-adcevd.csv,CB7FN,83,bnt162-01-A-adcevd,phase1,3734
FDA-CBER-2021-5683-1203448-1203540_27034_S1_M5_bnt162-01-A-adcevd.csv,CB28FL,84,bnt162-01-A-adcevd,phase1,3734
FDA-CBER-2021-5683-1203448-1203540_27034_S1_M5_bnt162-01-A-adcevd.csv,CB28FN,85,bnt162-01-A-adcevd,phase1,3734
FDA-CBER-2021-5683-1203448-1203540_27034_S1_M5_bnt162-01-A-adcevd.csv,CPB28FL,86,bnt162-01-A-adcevd,phase1,3734
FDA-CBER-2021-5683-1203448-1203540_27034_S1_M5_bnt162-01-A-adcevd.csv,CPB28FN,87,bnt162-01-A-adcevd,phase1,3734
FDA-CBER-2021-5683-1203448-1203540_27034_S1_M5_bnt162-01-A-adcevd.csv,COMPLFL,88,bnt162-01-A-adcevd,phase1,3734
FDA-CBER-2021-5683-1203448-1203540_27034_S1_M5_bnt162-01-A-adcevd.csv,COMPLFN,89,bnt162-01-A-adcevd,phase1,3734
FDA-CBER-2021-5683-1203448-1203540_27034_S1_M5_bnt162-01-A-adcevd.csv,TRTSDT,90,bnt162-01-A-adcevd,phase1,3734
FDA-CBER-2021-5683-1203448-1203540_27034_S1_M5_bnt162-01-A-adcevd.csv,TRTSDTM,91,bnt162-01-A-adcevd,phase1,3734
FDA-CBER-2021-5683-1203448-1203540_27034_S1_M5_bnt162-01-A-adcevd.csv,TRTSTM,92,bnt162-01-A-adcevd,phase1,3734
FDA-CBER-2021-5683-1203448-1203540_27034_S1_M5_bnt162-01-A-adcevd.csv,TRTEDT,93,bnt162-01-A-adcevd,phase1,3734
FDA-CBER-2021-5683-1203448-1203540_27034_S1_M5_bnt162-01-A-adcevd.csv,TRTEDTM,94,bnt162-01-A-adcevd,phase1,3734
FDA-CBER-2021-5683-1203448-1203540_27034_S1_M5_bnt162-01-A-adcevd.csv,TRTETM,95,bnt162-01-A-adcevd,phase1,3734
FDA-CBER-2021-5683-1203448-1203540_27034_S1_M5_bnt162-01-A-adcevd.csv,ALLOCDT,96,bnt162-01-A-adcevd,phase1,3734
FDA-CBER-2021-5683-1203448-1203540_27034_S1_M5_bnt162-01-A-adcevd.csv,ALLOCTM,97,bnt162-01-A-adcevd,phase1,3734
FDA-CBER-2021-5683-1203448-1203540_27034_S1_M5_bnt162-01-A-adcevd.csv,ALLOCDTM,98,bnt162-01-A-adcevd,phase1,3734
FDA-CBER-2021-5683-1203448-1203540_27034_S1_M5_bnt162-01-A-adcevd.csv,PRIMDT,99,bnt162-01-A-adcevd,phase1,3734
FDA-CBER-2021-5683-1203448-1203540_27034_S1_M5_bnt162-01-A-adcevd.csv,PRIMTM,100,bnt162-01-A-adcevd,phase1,3734
FDA-CBER-2021-5683-1203448-1203540_27034_S1_M5_bnt162-01-A-adcevd.csv,PRIMDTM,101,bnt162-01-A-adcevd,phase1,3734
FDA-CBER-2021-5683-1203448-1203540_27034_S1_M5_bnt162-01-A-adcevd.csv,BOIMDT,102,bnt162-01-A-adcevd,phase1,3734
FDA-CBER-2021-5683-1203448-1203540_27034_S1_M5_bnt162-01-A-adcevd.csv,BOIMTM,103,bnt162-01-A-adcevd,phase1,3734
FDA-CBER-2021-5683-1203448-1203540_27034_S1_M5_bnt162-01-A-adcevd.csv,BOIMDTM,104,bnt162-01-A-adcevd,phase1,3734
FDA-CBER-2021-5683-1203541-1204338_27034_S1_M5_bnt162-01-A-adfacevd.csv,STUDYID,1,bnt162-01-A-adfacevd,phase1,31947
FDA-CBER-2021-5683-1203541-1204338_27034_S1_M5_bnt162-01-A-adfacevd.csv,USUBJID,2,bnt162-01-A-adfacevd,phase1,31947
FDA-CBER-2021-5683-1203541-1204338_27034_S1_M5_bnt162-01-A-adfacevd.csv,SUBJID,3,bnt162-01-A-adfacevd,phase1,31947
FDA-CBER-2021-5683-1203541-1204338_27034_S1_M5_bnt162-01-A-adfacevd.csv,SUBJIDN,4,bnt162-01-A-adfacevd,phase1,31947
FDA-CBER-2021-5683-1203541-1204338_27034_S1_M5_bnt162-01-A-adfacevd.csv,COHORT,5,bnt162-01-A-adfacevd,phase1,31947
FDA-CBER-2021-5683-1203541-1204338_27034_S1_M5_bnt162-01-A-adfacevd.csv,COHORTN,6,bnt162-01-A-adfacevd,phase1,31947
FDA-CBER-2021-5683-1203541-1204338_27034_S1_M5_bnt162-01-A-adfacevd.csv,GROUP,7,bnt162-01-A-adfacevd,phase1,31947
FDA-CBER-2021-5683-1203541-1204338_27034_S1_M5_bnt162-01-A-adfacevd.csv,GROUPN,8,bnt162-01-A-adfacevd,phase1,31947
FDA-CBER-2021-5683-1203541-1204338_27034_S1_M5_bnt162-01-A-adfacevd.csv,TRTP,9,bnt162-01-A-adfacevd,phase1,31947
FDA-CBER-2021-5683-1203541-1204338_27034_S1_M5_bnt162-01-A-adfacevd.csv,TRTPN,10,bnt162-01-A-adfacevd,phase1,31947
FDA-CBER-2021-5683-1203541-1204338_27034_S1_M5_bnt162-01-A-adfacevd.csv,TRTA,11,bnt162-01-A-adfacevd,phase1,31947
FDA-CBER-2021-5683-1203541-1204338_27034_S1_M5_bnt162-01-A-adfacevd.csv,TRTAN,12,bnt162-01-A-adfacevd,phase1,31947
FDA-CBER-2021-5683-1203541-1204338_27034_S1_M5_bnt162-01-A-adfacevd.csv,ADT,13,bnt162-01-A-adfacevd,phase1,31947
FDA-CBER-2021-5683-1203541-1204338_27034_S1_M5_bnt162-01-A-adfacevd.csv,ADTM,14,bnt162-01-A-adfacevd,phase1,31947
FDA-CBER-2021-5683-1203541-1204338_27034_S1_M5_bnt162-01-A-adfacevd.csv,ADY,15,bnt162-01-A-adfacevd,phase1,31947
FDA-CBER-2021-5683-1203541-1204338_27034_S1_M5_bnt162-01-A-adfacevd.csv,ASTDT,16,bnt162-01-A-adfacevd,phase1,31947
FDA-CBER-2021-5683-1203541-1204338_27034_S1_M5_bnt162-01-A-adfacevd.csv,ASTDY,17,bnt162-01-A-adfacevd,phase1,31947
FDA-CBER-2021-5683-1203541-1204338_27034_S1_M5_bnt162-01-A-adfacevd.csv,AENDT,18,bnt162-01-A-adfacevd,phase1,31947
FDA-CBER-2021-5683-1203541-1204338_27034_S1_M5_bnt162-01-A-adfacevd.csv,AENDY,19,bnt162-01-A-adfacevd,phase1,31947
FDA-CBER-2021-5683-1203541-1204338_27034_S1_M5_bnt162-01-A-adfacevd.csv,FADTC,20,bnt162-01-A-adfacevd,phase1,31947
FDA-CBER-2021-5683-1203541-1204338_27034_S1_M5_bnt162-01-A-adfacevd.csv,VSDTC,21,bnt162-01-A-adfacevd,phase1,31947
FDA-CBER-2021-5683-1203541-1204338_27034_S1_M5_bnt162-01-A-adfacevd.csv,ATPT,22,bnt162-01-A-adfacevd,phase1,31947
FDA-CBER-2021-5683-1203541-1204338_27034_S1_M5_bnt162-01-A-adfacevd.csv,ATPTN,23,bnt162-01-A-adfacevd,phase1,31947
FDA-CBER-2021-5683-1203541-1204338_27034_S1_M5_bnt162-01-A-adfacevd.csv,FATPT,24,bnt162-01-A-adfacevd,phase1,31947
FDA-CBER-2021-5683-1203541-1204338_27034_S1_M5_bnt162-01-A-adfacevd.csv,VSTPT,25,bnt162-01-A-adfacevd,phase1,31947
FDA-CBER-2021-5683-1203541-1204338_27034_S1_M5_bnt162-01-A-adfacevd.csv,ATPTREF,26,bnt162-01-A-adfacevd,phase1,31947
FDA-CBER-2021-5683-1203541-1204338_27034_S1_M5_bnt162-01-A-adfacevd.csv,FATPTREF,27,bnt162-01-A-adfacevd,phase1,31947
FDA-CBER-2021-5683-1203541-1204338_27034_S1_M5_bnt162-01-A-adfacevd.csv,VSTPTREF,28,bnt162-01-A-adfacevd,phase1,31947
FDA-CBER-2021-5683-1203541-1204338_27034_S1_M5_bnt162-01-A-adfacevd.csv,PARAM,29,bnt162-01-A-adfacevd,phase1,31947
FDA-CBER-2021-5683-1203541-1204338_27034_S1_M5_bnt162-01-A-adfacevd.csv,PARAMCD,30,bnt162-01-A-adfacevd,phase1,31947
FDA-CBER-2021-5683-1203541-1204338_27034_S1_M5_bnt162-01-A-adfacevd.csv,PARAMN,31,bnt162-01-A-adfacevd,phase1,31947
FDA-CBER-2021-5683-1203541-1204338_27034_S1_M5_bnt162-01-A-adfacevd.csv,FAOBJ,32,bnt162-01-A-adfacevd,phase1,31947
FDA-CBER-2021-5683-1203541-1204338_27034_S1_M5_bnt162-01-A-adfacevd.csv,FATEST,33,bnt162-01-A-adfacevd,phase1,31947
FDA-CBER-2021-5683-1203541-1204338_27034_S1_M5_bnt162-01-A-adfacevd.csv,FATESTCD,34,bnt162-01-A-adfacevd,phase1,31947
FDA-CBER-2021-5683-1203541-1204338_27034_S1_M5_bnt162-01-A-adfacevd.csv,VSTEST,35,bnt162-01-A-adfacevd,phase1,31947
FDA-CBER-2021-5683-1203541-1204338_27034_S1_M5_bnt162-01-A-adfacevd.csv,VSTESTCD,36,bnt162-01-A-adfacevd,phase1,31947
FDA-CBER-2021-5683-1203541-1204338_27034_S1_M5_bnt162-01-A-adfacevd.csv,PARCAT1,37,bnt162-01-A-adfacevd,phase1,31947
FDA-CBER-2021-5683-1203541-1204338_27034_S1_M5_bnt162-01-A-adfacevd.csv,FASCAT,38,bnt162-01-A-adfacevd,phase1,31947
FDA-CBER-2021-5683-1203541-1204338_27034_S1_M5_bnt162-01-A-adfacevd.csv,AVAL,39,bnt162-01-A-adfacevd,phase1,31947
FDA-CBER-2021-5683-1203541-1204338_27034_S1_M5_bnt162-01-A-adfacevd.csv,AVALC,40,bnt162-01-A-adfacevd,phase1,31947
FDA-CBER-2021-5683-1203541-1204338_27034_S1_M5_bnt162-01-A-adfacevd.csv,FASTRESC,41,bnt162-01-A-adfacevd,phase1,31947
FDA-CBER-2021-5683-1203541-1204338_27034_S1_M5_bnt162-01-A-adfacevd.csv,VSSTRESN,42,bnt162-01-A-adfacevd,phase1,31947
FDA-CBER-2021-5683-1203541-1204338_27034_S1_M5_bnt162-01-A-adfacevd.csv,AVALCAT1,43,bnt162-01-A-adfacevd,phase1,31947
FDA-CBER-2021-5683-1203541-1204338_27034_S1_M5_bnt162-01-A-adfacevd.csv,SRCDOM,44,bnt162-01-A-adfacevd,phase1,31947
FDA-CBER-2021-5683-1203541-1204338_27034_S1_M5_bnt162-01-A-adfacevd.csv,SRCVAR,45,bnt162-01-A-adfacevd,phase1,31947
FDA-CBER-2021-5683-1203541-1204338_27034_S1_M5_bnt162-01-A-adfacevd.csv,SRCSEQ,46,bnt162-01-A-adfacevd,phase1,31947
FDA-CBER-2021-5683-1203541-1204338_27034_S1_M5_bnt162-01-A-adfacevd.csv,FALNKID,47,bnt162-01-A-adfacevd,phase1,31947
FDA-CBER-2021-5683-1203541-1204338_27034_S1_M5_bnt162-01-A-adfacevd.csv,FALNKGRP,48,bnt162-01-A-adfacevd,phase1,31947
FDA-CBER-2021-5683-1203541-1204338_27034_S1_M5_bnt162-01-A-adfacevd.csv,VSLNKID,49,bnt162-01-A-adfacevd,phase1,31947
FDA-CBER-2021-5683-1203541-1204338_27034_S1_M5_bnt162-01-A-adfacevd.csv,VSLNKGRP,50,bnt162-01-A-adfacevd,phase1,31947
FDA-CBER-2021-5683-1203541-1204338_27034_S1_M5_bnt162-01-A-adfacevd.csv,AGE,51,bnt162-01-A-adfacevd,phase1,31947
FDA-CBER-2021-5683-1203541-1204338_27034_S1_M5_bnt162-01-A-adfacevd.csv,AGEU,52,bnt162-01-A-adfacevd,phase1,31947
FDA-CBER-2021-5683-1203541-1204338_27034_S1_M5_bnt162-01-A-adfacevd.csv,SEX,53,bnt162-01-A-adfacevd,phase1,31947
FDA-CBER-2021-5683-1203541-1204338_27034_S1_M5_bnt162-01-A-adfacevd.csv,SEXN,54,bnt162-01-A-adfacevd,phase1,31947
FDA-CBER-2021-5683-1203541-1204338_27034_S1_M5_bnt162-01-A-adfacevd.csv,RACE,55,bnt162-01-A-adfacevd,phase1,31947
FDA-CBER-2021-5683-1203541-1204338_27034_S1_M5_bnt162-01-A-adfacevd.csv,RACEN,56,bnt162-01-A-adfacevd,phase1,31947
FDA-CBER-2021-5683-1203541-1204338_27034_S1_M5_bnt162-01-A-adfacevd.csv,SCRFL,57,bnt162-01-A-adfacevd,phase1,31947
FDA-CBER-2021-5683-1203541-1204338_27034_S1_M5_bnt162-01-A-adfacevd.csv,SCRFN,58,bnt162-01-A-adfacevd,phase1,31947
FDA-CBER-2021-5683-1203541-1204338_27034_S1_M5_bnt162-01-A-adfacevd.csv,SAFFL,59,bnt162-01-A-adfacevd,phase1,31947
FDA-CBER-2021-5683-1203541-1204338_27034_S1_M5_bnt162-01-A-adfacevd.csv,SAFFN,60,bnt162-01-A-adfacevd,phase1,31947
FDA-CBER-2021-5683-1203541-1204338_27034_S1_M5_bnt162-01-A-adfacevd.csv,SAFBFL,61,bnt162-01-A-adfacevd,phase1,31947
FDA-CBER-2021-5683-1203541-1204338_27034_S1_M5_bnt162-01-A-adfacevd.csv,SAFBFN,62,bnt162-01-A-adfacevd,phase1,31947
FDA-CBER-2021-5683-1203541-1204338_27034_S1_M5_bnt162-01-A-adfacevd.csv,IMMFL,63,bnt162-01-A-adfacevd,phase1,31947
FDA-CBER-2021-5683-1203541-1204338_27034_S1_M5_bnt162-01-A-adfacevd.csv,IMMFN,64,bnt162-01-A-adfacevd,phase1,31947
FDA-CBER-2021-5683-1203541-1204338_27034_S1_M5_bnt162-01-A-adfacevd.csv,PPROTFL,65,bnt162-01-A-adfacevd,phase1,31947
FDA-CBER-2021-5683-1203541-1204338_27034_S1_M5_bnt162-01-A-adfacevd.csv,PPROTFN,66,bnt162-01-A-adfacevd,phase1,31947
FDA-CBER-2021-5683-1203541-1204338_27034_S1_M5_bnt162-01-A-adfacevd.csv,CP7FL,67,bnt162-01-A-adfacevd,phase1,31947
FDA-CBER-2021-5683-1203541-1204338_27034_S1_M5_bnt162-01-A-adfacevd.csv,CP7FN,68,bnt162-01-A-adfacevd,phase1,31947
FDA-CBER-2021-5683-1203541-1204338_27034_S1_M5_bnt162-01-A-adfacevd.csv,CPBP28FL,69,bnt162-01-A-adfacevd,phase1,31947
FDA-CBER-2021-5683-1203541-1204338_27034_S1_M5_bnt162-01-A-adfacevd.csv,CPBP28FN,70,bnt162-01-A-adfacevd,phase1,31947
FDA-CBER-2021-5683-1203541-1204338_27034_S1_M5_bnt162-01-A-adfacevd.csv,CB7FL,71,bnt162-01-A-adfacevd,phase1,31947
FDA-CBER-2021-5683-1203541-1204338_27034_S1_M5_bnt162-01-A-adfacevd.csv,CB7FN,72,bnt162-01-A-adfacevd,phase1,31947
FDA-CBER-2021-5683-1203541-1204338_27034_S1_M5_bnt162-01-A-adfacevd.csv,CB28FL,73,bnt162-01-A-adfacevd,phase1,31947
FDA-CBER-2021-5683-1203541-1204338_27034_S1_M5_bnt162-01-A-adfacevd.csv,CB28FN,74,bnt162-01-A-adfacevd,phase1,31947
FDA-CBER-2021-5683-1203541-1204338_27034_S1_M5_bnt162-01-A-adfacevd.csv,CPB28FL,75,bnt162-01-A-adfacevd,phase1,31947
FDA-CBER-2021-5683-1203541-1204338_27034_S1_M5_bnt162-01-A-adfacevd.csv,CPB28FN,76,bnt162-01-A-adfacevd,phase1,31947
FDA-CBER-2021-5683-1203541-1204338_27034_S1_M5_bnt162-01-A-adfacevd.csv,COMPLFL,77,bnt162-01-A-adfacevd,phase1,31947
FDA-CBER-2021-5683-1203541-1204338_27034_S1_M5_bnt162-01-A-adfacevd.csv,COMPLFN,78,bnt162-01-A-adfacevd,phase1,31947
FDA-CBER-2021-5683-1203541-1204338_27034_S1_M5_bnt162-01-A-adfacevd.csv,TRTSDT,79,bnt162-01-A-adfacevd,phase1,31947
FDA-CBER-2021-5683-1203541-1204338_27034_S1_M5_bnt162-01-A-adfacevd.csv,TRTSDTM,80,bnt162-01-A-adfacevd,phase1,31947
FDA-CBER-2021-5683-1203541-1204338_27034_S1_M5_bnt162-01-A-adfacevd.csv,TRTSTM,81,bnt162-01-A-adfacevd,phase1,31947
FDA-CBER-2021-5683-1203541-1204338_27034_S1_M5_bnt162-01-A-adfacevd.csv,TRTEDT,82,bnt162-01-A-adfacevd,phase1,31947
FDA-CBER-2021-5683-1203541-1204338_27034_S1_M5_bnt162-01-A-adfacevd.csv,TRTEDTM,83,bnt162-01-A-adfacevd,phase1,31947
FDA-CBER-2021-5683-1203541-1204338_27034_S1_M5_bnt162-01-A-adfacevd.csv,TRTETM,84,bnt162-01-A-adfacevd,phase1,31947
FDA-CBER-2021-5683-1203541-1204338_27034_S1_M5_bnt162-01-A-adfacevd.csv,ALLOCDT,85,bnt162-01-A-adfacevd,phase1,31947
FDA-CBER-2021-5683-1203541-1204338_27034_S1_M5_bnt162-01-A-adfacevd.csv,ALLOCTM,86,bnt162-01-A-adfacevd,phase1,31947
FDA-CBER-2021-5683-1203541-1204338_27034_S1_M5_bnt162-01-A-adfacevd.csv,ALLOCDTM,87,bnt162-01-A-adfacevd,phase1,31947
FDA-CBER-2021-5683-1203541-1204338_27034_S1_M5_bnt162-01-A-adfacevd.csv,PRIMDT,88,bnt162-01-A-adfacevd,phase1,31947
FDA-CBER-2021-5683-1203541-1204338_27034_S1_M5_bnt162-01-A-adfacevd.csv,PRIMTM,89,bnt162-01-A-adfacevd,phase1,31947
FDA-CBER-2021-5683-1203541-1204338_27034_S1_M5_bnt162-01-A-adfacevd.csv,PRIMDTM,90,bnt162-01-A-adfacevd,phase1,31947
FDA-CBER-2021-5683-1203541-1204338_27034_S1_M5_bnt162-01-A-adfacevd.csv,BOIMDT,91,bnt162-01-A-adfacevd,phase1,31947
FDA-CBER-2021-5683-1203541-1204338_27034_S1_M5_bnt162-01-A-adfacevd.csv,BOIMTM,92,bnt162-01-A-adfacevd,phase1,31947
FDA-CBER-2021-5683-1203541-1204338_27034_S1_M5_bnt162-01-A-adfacevd.csv,BOIMDTM,93,bnt162-01-A-adfacevd,phase1,31947
FDA-CBER-2021-5683-1204339-1205274_27034_S1_M5_bnt162-01-A-adlb.csv,STUDYID,1,bnt162-01-A-adlb,phase1,37475
FDA-CBER-2021-5683-1204339-1205274_27034_S1_M5_bnt162-01-A-adlb.csv,USUBJID,2,bnt162-01-A-adlb,phase1,37475
FDA-CBER-2021-5683-1204339-1205274_27034_S1_M5_bnt162-01-A-adlb.csv,SUBJID,3,bnt162-01-A-adlb,phase1,37475
FDA-CBER-2021-5683-1204339-1205274_27034_S1_M5_bnt162-01-A-adlb.csv,SUBJIDN,4,bnt162-01-A-adlb,phase1,37475
FDA-CBER-2021-5683-1204339-1205274_27034_S1_M5_bnt162-01-A-adlb.csv,COHORT,5,bnt162-01-A-adlb,phase1,37475
FDA-CBER-2021-5683-1204339-1205274_27034_S1_M5_bnt162-01-A-adlb.csv,COHORTN,6,bnt162-01-A-adlb,phase1,37475
FDA-CBER-2021-5683-1204339-1205274_27034_S1_M5_bnt162-01-A-adlb.csv,GROUP,7,bnt162-01-A-adlb,phase1,37475
FDA-CBER-2021-5683-1204339-1205274_27034_S1_M5_bnt162-01-A-adlb.csv,GROUPN,8,bnt162-01-A-adlb,phase1,37475
FDA-CBER-2021-5683-1204339-1205274_27034_S1_M5_bnt162-01-A-adlb.csv,TRTP,9,bnt162-01-A-adlb,phase1,37475
FDA-CBER-2021-5683-1204339-1205274_27034_S1_M5_bnt162-01-A-adlb.csv,TRTPN,10,bnt162-01-A-adlb,phase1,37475
FDA-CBER-2021-5683-1204339-1205274_27034_S1_M5_bnt162-01-A-adlb.csv,TRTA,11,bnt162-01-A-adlb,phase1,37475
FDA-CBER-2021-5683-1204339-1205274_27034_S1_M5_bnt162-01-A-adlb.csv,TRTAN,12,bnt162-01-A-adlb,phase1,37475
FDA-CBER-2021-5683-1204339-1205274_27034_S1_M5_bnt162-01-A-adlb.csv,LBSEQ,13,bnt162-01-A-adlb,phase1,37475
FDA-CBER-2021-5683-1204339-1205274_27034_S1_M5_bnt162-01-A-adlb.csv,ASEQ,14,bnt162-01-A-adlb,phase1,37475
FDA-CBER-2021-5683-1204339-1205274_27034_S1_M5_bnt162-01-A-adlb.csv,PARAM,15,bnt162-01-A-adlb,phase1,37475
FDA-CBER-2021-5683-1204339-1205274_27034_S1_M5_bnt162-01-A-adlb.csv,PARAMCD,16,bnt162-01-A-adlb,phase1,37475
FDA-CBER-2021-5683-1204339-1205274_27034_S1_M5_bnt162-01-A-adlb.csv,PARAMN,17,bnt162-01-A-adlb,phase1,37475
FDA-CBER-2021-5683-1204339-1205274_27034_S1_M5_bnt162-01-A-adlb.csv,PARCAT1,18,bnt162-01-A-adlb,phase1,37475
FDA-CBER-2021-5683-1204339-1205274_27034_S1_M5_bnt162-01-A-adlb.csv,PARCAT1N,19,bnt162-01-A-adlb,phase1,37475
FDA-CBER-2021-5683-1204339-1205274_27034_S1_M5_bnt162-01-A-adlb.csv,PARCAT2,20,bnt162-01-A-adlb,phase1,37475
FDA-CBER-2021-5683-1204339-1205274_27034_S1_M5_bnt162-01-A-adlb.csv,PARCAT2N,21,bnt162-01-A-adlb,phase1,37475
FDA-CBER-2021-5683-1204339-1205274_27034_S1_M5_bnt162-01-A-adlb.csv,LBSPEC,22,bnt162-01-A-adlb,phase1,37475
FDA-CBER-2021-5683-1204339-1205274_27034_S1_M5_bnt162-01-A-adlb.csv,AVAL,23,bnt162-01-A-adlb,phase1,37475
FDA-CBER-2021-5683-1204339-1205274_27034_S1_M5_bnt162-01-A-adlb.csv,AVALC,24,bnt162-01-A-adlb,phase1,37475
FDA-CBER-2021-5683-1204339-1205274_27034_S1_M5_bnt162-01-A-adlb.csv,LBCLSIG,25,bnt162-01-A-adlb,phase1,37475
FDA-CBER-2021-5683-1204339-1205274_27034_S1_M5_bnt162-01-A-adlb.csv,LBCLSIGN,26,bnt162-01-A-adlb,phase1,37475
FDA-CBER-2021-5683-1204339-1205274_27034_S1_M5_bnt162-01-A-adlb.csv,ABLFL,27,bnt162-01-A-adlb,phase1,37475
FDA-CBER-2021-5683-1204339-1205274_27034_S1_M5_bnt162-01-A-adlb.csv,BASE,28,bnt162-01-A-adlb,phase1,37475
FDA-CBER-2021-5683-1204339-1205274_27034_S1_M5_bnt162-01-A-adlb.csv,BASEC,29,bnt162-01-A-adlb,phase1,37475
FDA-CBER-2021-5683-1204339-1205274_27034_S1_M5_bnt162-01-A-adlb.csv,CHG,30,bnt162-01-A-adlb,phase1,37475
FDA-CBER-2021-5683-1204339-1205274_27034_S1_M5_bnt162-01-A-adlb.csv,PCHG,31,bnt162-01-A-adlb,phase1,37475
FDA-CBER-2021-5683-1204339-1205274_27034_S1_M5_bnt162-01-A-adlb.csv,ANRIND,32,bnt162-01-A-adlb,phase1,37475
FDA-CBER-2021-5683-1204339-1205274_27034_S1_M5_bnt162-01-A-adlb.csv,ANRINDN,33,bnt162-01-A-adlb,phase1,37475
FDA-CBER-2021-5683-1204339-1205274_27034_S1_M5_bnt162-01-A-adlb.csv,BNRIND,34,bnt162-01-A-adlb,phase1,37475
FDA-CBER-2021-5683-1204339-1205274_27034_S1_M5_bnt162-01-A-adlb.csv,BNRINDN,35,bnt162-01-A-adlb,phase1,37475
FDA-CBER-2021-5683-1204339-1205274_27034_S1_M5_bnt162-01-A-adlb.csv,ANRLO,36,bnt162-01-A-adlb,phase1,37475
FDA-CBER-2021-5683-1204339-1205274_27034_S1_M5_bnt162-01-A-adlb.csv,ANRLOC,37,bnt162-01-A-adlb,phase1,37475
FDA-CBER-2021-5683-1204339-1205274_27034_S1_M5_bnt162-01-A-adlb.csv,ANRHI,38,bnt162-01-A-adlb,phase1,37475
FDA-CBER-2021-5683-1204339-1205274_27034_S1_M5_bnt162-01-A-adlb.csv,ANRHIC,39,bnt162-01-A-adlb,phase1,37475
FDA-CBER-2021-5683-1204339-1205274_27034_S1_M5_bnt162-01-A-adlb.csv,NABCS,40,bnt162-01-A-adlb,phase1,37475
FDA-CBER-2021-5683-1204339-1205274_27034_S1_M5_bnt162-01-A-adlb.csv,NABCSN,41,bnt162-01-A-adlb,phase1,37475
FDA-CBER-2021-5683-1204339-1205274_27034_S1_M5_bnt162-01-A-adlb.csv,DTYPE,42,bnt162-01-A-adlb,phase1,37475
FDA-CBER-2021-5683-1204339-1205274_27034_S1_M5_bnt162-01-A-adlb.csv,WPBFL,43,bnt162-01-A-adlb,phase1,37475
FDA-CBER-2021-5683-1204339-1205274_27034_S1_M5_bnt162-01-A-adlb.csv,ANL01FL,44,bnt162-01-A-adlb,phase1,37475
FDA-CBER-2021-5683-1204339-1205274_27034_S1_M5_bnt162-01-A-adlb.csv,ANL02FL,45,bnt162-01-A-adlb,phase1,37475
FDA-CBER-2021-5683-1204339-1205274_27034_S1_M5_bnt162-01-A-adlb.csv,UNSVFL,46,bnt162-01-A-adlb,phase1,37475
FDA-CBER-2021-5683-1204339-1205274_27034_S1_M5_bnt162-01-A-adlb.csv,POBLFL,47,bnt162-01-A-adlb,phase1,37475
FDA-CBER-2021-5683-1204339-1205274_27034_S1_M5_bnt162-01-A-adlb.csv,LBSTAT,48,bnt162-01-A-adlb,phase1,37475
FDA-CBER-2021-5683-1204339-1205274_27034_S1_M5_bnt162-01-A-adlb.csv,LBREASND,49,bnt162-01-A-adlb,phase1,37475
FDA-CBER-2021-5683-1204339-1205274_27034_S1_M5_bnt162-01-A-adlb.csv,LBNAM,50,bnt162-01-A-adlb,phase1,37475
FDA-CBER-2021-5683-1204339-1205274_27034_S1_M5_bnt162-01-A-adlb.csv,LBMETHOD,51,bnt162-01-A-adlb,phase1,37475
FDA-CBER-2021-5683-1204339-1205274_27034_S1_M5_bnt162-01-A-adlb.csv,LBFAST,52,bnt162-01-A-adlb,phase1,37475
FDA-CBER-2021-5683-1204339-1205274_27034_S1_M5_bnt162-01-A-adlb.csv,LBORRES1,53,bnt162-01-A-adlb,phase1,37475
FDA-CBER-2021-5683-1204339-1205274_27034_S1_M5_bnt162-01-A-adlb.csv,LBORRES2,54,bnt162-01-A-adlb,phase1,37475
FDA-CBER-2021-5683-1204339-1205274_27034_S1_M5_bnt162-01-A-adlb.csv,LBLOINC1,55,bnt162-01-A-adlb,phase1,37475
FDA-CBER-2021-5683-1204339-1205274_27034_S1_M5_bnt162-01-A-adlb.csv,LBLOINC2,56,bnt162-01-A-adlb,phase1,37475
FDA-CBER-2021-5683-1204339-1205274_27034_S1_M5_bnt162-01-A-adlb.csv,RBB,57,bnt162-01-A-adlb,phase1,37475
FDA-CBER-2021-5683-1204339-1205274_27034_S1_M5_bnt162-01-A-adlb.csv,RBB2,58,bnt162-01-A-adlb,phase1,37475
FDA-CBER-2021-5683-1204339-1205274_27034_S1_M5_bnt162-01-A-adlb.csv,LBDTC,59,bnt162-01-A-adlb,phase1,37475
FDA-CBER-2021-5683-1204339-1205274_27034_S1_M5_bnt162-01-A-adlb.csv,ADT,60,bnt162-01-A-adlb,phase1,37475
FDA-CBER-2021-5683-1204339-1205274_27034_S1_M5_bnt162-01-A-adlb.csv,ATM,61,bnt162-01-A-adlb,phase1,37475
FDA-CBER-2021-5683-1204339-1205274_27034_S1_M5_bnt162-01-A-adlb.csv,ADTM,62,bnt162-01-A-adlb,phase1,37475
FDA-CBER-2021-5683-1204339-1205274_27034_S1_M5_bnt162-01-A-adlb.csv,LBDY,63,bnt162-01-A-adlb,phase1,37475
FDA-CBER-2021-5683-1204339-1205274_27034_S1_M5_bnt162-01-A-adlb.csv,ADY,64,bnt162-01-A-adlb,phase1,37475
FDA-CBER-2021-5683-1204339-1205274_27034_S1_M5_bnt162-01-A-adlb.csv,AVISIT,65,bnt162-01-A-adlb,phase1,37475
FDA-CBER-2021-5683-1204339-1205274_27034_S1_M5_bnt162-01-A-adlb.csv,AVISITN,66,bnt162-01-A-adlb,phase1,37475
FDA-CBER-2021-5683-1204339-1205274_27034_S1_M5_bnt162-01-A-adlb.csv,VISIT,67,bnt162-01-A-adlb,phase1,37475
FDA-CBER-2021-5683-1204339-1205274_27034_S1_M5_bnt162-01-A-adlb.csv,VISITNUM,68,bnt162-01-A-adlb,phase1,37475
FDA-CBER-2021-5683-1204339-1205274_27034_S1_M5_bnt162-01-A-adlb.csv,EPOCH,69,bnt162-01-A-adlb,phase1,37475
FDA-CBER-2021-5683-1204339-1205274_27034_S1_M5_bnt162-01-A-adlb.csv,COMMENT1,70,bnt162-01-A-adlb,phase1,37475
FDA-CBER-2021-5683-1204339-1205274_27034_S1_M5_bnt162-01-A-adlb.csv,COMEVAL1,71,bnt162-01-A-adlb,phase1,37475
FDA-CBER-2021-5683-1204339-1205274_27034_S1_M5_bnt162-01-A-adlb.csv,COMMENT2,72,bnt162-01-A-adlb,phase1,37475
FDA-CBER-2021-5683-1204339-1205274_27034_S1_M5_bnt162-01-A-adlb.csv,COMEVAL2,73,bnt162-01-A-adlb,phase1,37475
FDA-CBER-2021-5683-1204339-1205274_27034_S1_M5_bnt162-01-A-adlb.csv,AGE,74,bnt162-01-A-adlb,phase1,37475
FDA-CBER-2021-5683-1204339-1205274_27034_S1_M5_bnt162-01-A-adlb.csv,AGEU,75,bnt162-01-A-adlb,phase1,37475
FDA-CBER-2021-5683-1204339-1205274_27034_S1_M5_bnt162-01-A-adlb.csv,SEX,76,bnt162-01-A-adlb,phase1,37475
FDA-CBER-2021-5683-1204339-1205274_27034_S1_M5_bnt162-01-A-adlb.csv,SEXN,77,bnt162-01-A-adlb,phase1,37475
FDA-CBER-2021-5683-1204339-1205274_27034_S1_M5_bnt162-01-A-adlb.csv,RACE,78,bnt162-01-A-adlb,phase1,37475
FDA-CBER-2021-5683-1204339-1205274_27034_S1_M5_bnt162-01-A-adlb.csv,RACEN,79,bnt162-01-A-adlb,phase1,37475
FDA-CBER-2021-5683-1204339-1205274_27034_S1_M5_bnt162-01-A-adlb.csv,SCRFL,80,bnt162-01-A-adlb,phase1,37475
FDA-CBER-2021-5683-1204339-1205274_27034_S1_M5_bnt162-01-A-adlb.csv,SCRFN,81,bnt162-01-A-adlb,phase1,37475
FDA-CBER-2021-5683-1204339-1205274_27034_S1_M5_bnt162-01-A-adlb.csv,SAFFL,82,bnt162-01-A-adlb,phase1,37475
FDA-CBER-2021-5683-1204339-1205274_27034_S1_M5_bnt162-01-A-adlb.csv,SAFFN,83,bnt162-01-A-adlb,phase1,37475
FDA-CBER-2021-5683-1204339-1205274_27034_S1_M5_bnt162-01-A-adlb.csv,SAFBFL,84,bnt162-01-A-adlb,phase1,37475
FDA-CBER-2021-5683-1204339-1205274_27034_S1_M5_bnt162-01-A-adlb.csv,SAFBFN,85,bnt162-01-A-adlb,phase1,37475
FDA-CBER-2021-5683-1204339-1205274_27034_S1_M5_bnt162-01-A-adlb.csv,IMMFL,86,bnt162-01-A-adlb,phase1,37475
FDA-CBER-2021-5683-1204339-1205274_27034_S1_M5_bnt162-01-A-adlb.csv,IMMFN,87,bnt162-01-A-adlb,phase1,37475
FDA-CBER-2021-5683-1204339-1205274_27034_S1_M5_bnt162-01-A-adlb.csv,PPROTFL,88,bnt162-01-A-adlb,phase1,37475
FDA-CBER-2021-5683-1204339-1205274_27034_S1_M5_bnt162-01-A-adlb.csv,PPROTFN,89,bnt162-01-A-adlb,phase1,37475
FDA-CBER-2021-5683-1204339-1205274_27034_S1_M5_bnt162-01-A-adlb.csv,EXPPROT1,90,bnt162-01-A-adlb,phase1,37475
FDA-CBER-2021-5683-1204339-1205274_27034_S1_M5_bnt162-01-A-adlb.csv,CP7FL,91,bnt162-01-A-adlb,phase1,37475
FDA-CBER-2021-5683-1204339-1205274_27034_S1_M5_bnt162-01-A-adlb.csv,CP7FN,92,bnt162-01-A-adlb,phase1,37475
FDA-CBER-2021-5683-1204339-1205274_27034_S1_M5_bnt162-01-A-adlb.csv,CPBP28FL,93,bnt162-01-A-adlb,phase1,37475
FDA-CBER-2021-5683-1204339-1205274_27034_S1_M5_bnt162-01-A-adlb.csv,CPBP28FN,94,bnt162-01-A-adlb,phase1,37475
FDA-CBER-2021-5683-1204339-1205274_27034_S1_M5_bnt162-01-A-adlb.csv,CB7FL,95,bnt162-01-A-adlb,phase1,37475
FDA-CBER-2021-5683-1204339-1205274_27034_S1_M5_bnt162-01-A-adlb.csv,CB7FN,96,bnt162-01-A-adlb,phase1,37475
FDA-CBER-2021-5683-1204339-1205274_27034_S1_M5_bnt162-01-A-adlb.csv,CB28FL,97,bnt162-01-A-adlb,phase1,37475
FDA-CBER-2021-5683-1204339-1205274_27034_S1_M5_bnt162-01-A-adlb.csv,CB28FN,98,bnt162-01-A-adlb,phase1,37475
FDA-CBER-2021-5683-1204339-1205274_27034_S1_M5_bnt162-01-A-adlb.csv,CPB28FL,99,bnt162-01-A-adlb,phase1,37475
FDA-CBER-2021-5683-1204339-1205274_27034_S1_M5_bnt162-01-A-adlb.csv,CPB28FN,100,bnt162-01-A-adlb,phase1,37475
FDA-CBER-2021-5683-1204339-1205274_27034_S1_M5_bnt162-01-A-adlb.csv,COMPLFL,101,bnt162-01-A-adlb,phase1,37475
FDA-CBER-2021-5683-1204339-1205274_27034_S1_M5_bnt162-01-A-adlb.csv,COMPLFN,102,bnt162-01-A-adlb,phase1,37475
FDA-CBER-2021-5683-1204339-1205274_27034_S1_M5_bnt162-01-A-adlb.csv,TRTSDT,103,bnt162-01-A-adlb,phase1,37475
FDA-CBER-2021-5683-1204339-1205274_27034_S1_M5_bnt162-01-A-adlb.csv,TRTSTM,104,bnt162-01-A-adlb,phase1,37475
FDA-CBER-2021-5683-1204339-1205274_27034_S1_M5_bnt162-01-A-adlb.csv,TRTSDTM,105,bnt162-01-A-adlb,phase1,37475
FDA-CBER-2021-5683-1204339-1205274_27034_S1_M5_bnt162-01-A-adlb.csv,TRTEDT,106,bnt162-01-A-adlb,phase1,37475
FDA-CBER-2021-5683-1204339-1205274_27034_S1_M5_bnt162-01-A-adlb.csv,TRTETM,107,bnt162-01-A-adlb,phase1,37475
FDA-CBER-2021-5683-1204339-1205274_27034_S1_M5_bnt162-01-A-adlb.csv,TRTEDTM,108,bnt162-01-A-adlb,phase1,37475
FDA-CBER-2021-5683-1204339-1205274_27034_S1_M5_bnt162-01-A-adlb.csv,ALLOCDT,109,bnt162-01-A-adlb,phase1,37475
FDA-CBER-2021-5683-1204339-1205274_27034_S1_M5_bnt162-01-A-adlb.csv,ALLOCTM,110,bnt162-01-A-adlb,phase1,37475
FDA-CBER-2021-5683-1204339-1205274_27034_S1_M5_bnt162-01-A-adlb.csv,ALLOCDTM,111,bnt162-01-A-adlb,phase1,37475
FDA-CBER-2021-5683-1204339-1205274_27034_S1_M5_bnt162-01-A-adlb.csv,SRCDOM,112,bnt162-01-A-adlb,phase1,37475
FDA-CBER-2021-5683-1204339-1205274_27034_S1_M5_bnt162-01-A-adlb.csv,SRCVAR,113,bnt162-01-A-adlb,phase1,37475
FDA-CBER-2021-5683-1204339-1205274_27034_S1_M5_bnt162-01-A-adlb.csv,SRCSEQ,114,bnt162-01-A-adlb,phase1,37475
FDA-CBER-2021-5683-1205306-1205308_27034_S1_M5_bnt162-01-A-adsl.csv,STUDYID,1,bnt162-01-A-adsl,phase1,144
FDA-CBER-2021-5683-1205306-1205308_27034_S1_M5_bnt162-01-A-adsl.csv,USUBJID,2,bnt162-01-A-adsl,phase1,144
FDA-CBER-2021-5683-1205306-1205308_27034_S1_M5_bnt162-01-A-adsl.csv,SUBJID,3,bnt162-01-A-adsl,phase1,144
FDA-CBER-2021-5683-1205306-1205308_27034_S1_M5_bnt162-01-A-adsl.csv,SUBJIDN,4,bnt162-01-A-adsl,phase1,144
FDA-CBER-2021-5683-1205306-1205308_27034_S1_M5_bnt162-01-A-adsl.csv,SITEID,5,bnt162-01-A-adsl,phase1,144
FDA-CBER-2021-5683-1205306-1205308_27034_S1_M5_bnt162-01-A-adsl.csv,INVID,6,bnt162-01-A-adsl,phase1,144
FDA-CBER-2021-5683-1205306-1205308_27034_S1_M5_bnt162-01-A-adsl.csv,INVNAM,7,bnt162-01-A-adsl,phase1,144
FDA-CBER-2021-5683-1205306-1205308_27034_S1_M5_bnt162-01-A-adsl.csv,AGE,8,bnt162-01-A-adsl,phase1,144
FDA-CBER-2021-5683-1205306-1205308_27034_S1_M5_bnt162-01-A-adsl.csv,AGEU,9,bnt162-01-A-adsl,phase1,144
FDA-CBER-2021-5683-1205306-1205308_27034_S1_M5_bnt162-01-A-adsl.csv,AGE_M,10,bnt162-01-A-adsl,phase1,144
FDA-CBER-2021-5683-1205306-1205308_27034_S1_M5_bnt162-01-A-adsl.csv,AAGE,11,bnt162-01-A-adsl,phase1,144
FDA-CBER-2021-5683-1205306-1205308_27034_S1_M5_bnt162-01-A-adsl.csv,SEX,12,bnt162-01-A-adsl,phase1,144
FDA-CBER-2021-5683-1205306-1205308_27034_S1_M5_bnt162-01-A-adsl.csv,SEXN,13,bnt162-01-A-adsl,phase1,144
FDA-CBER-2021-5683-1205306-1205308_27034_S1_M5_bnt162-01-A-adsl.csv,RACE,14,bnt162-01-A-adsl,phase1,144
FDA-CBER-2021-5683-1205306-1205308_27034_S1_M5_bnt162-01-A-adsl.csv,RACEN,15,bnt162-01-A-adsl,phase1,144
FDA-CBER-2021-5683-1205306-1205308_27034_S1_M5_bnt162-01-A-adsl.csv,RACEOTH,16,bnt162-01-A-adsl,phase1,144
FDA-CBER-2021-5683-1205306-1205308_27034_S1_M5_bnt162-01-A-adsl.csv,RACE1,17,bnt162-01-A-adsl,phase1,144
FDA-CBER-2021-5683-1205306-1205308_27034_S1_M5_bnt162-01-A-adsl.csv,RACE2,18,bnt162-01-A-adsl,phase1,144
FDA-CBER-2021-5683-1205306-1205308_27034_S1_M5_bnt162-01-A-adsl.csv,ETHNIC,19,bnt162-01-A-adsl,phase1,144
FDA-CBER-2021-5683-1205306-1205308_27034_S1_M5_bnt162-01-A-adsl.csv,ETHNICN,20,bnt162-01-A-adsl,phase1,144
FDA-CBER-2021-5683-1205306-1205308_27034_S1_M5_bnt162-01-A-adsl.csv,HEIGHT,21,bnt162-01-A-adsl,phase1,144
FDA-CBER-2021-5683-1205306-1205308_27034_S1_M5_bnt162-01-A-adsl.csv,WEIGHT,22,bnt162-01-A-adsl,phase1,144
FDA-CBER-2021-5683-1205306-1205308_27034_S1_M5_bnt162-01-A-adsl.csv,BMI,23,bnt162-01-A-adsl,phase1,144
FDA-CBER-2021-5683-1205306-1205308_27034_S1_M5_bnt162-01-A-adsl.csv,SCRFL,24,bnt162-01-A-adsl,phase1,144
FDA-CBER-2021-5683-1205306-1205308_27034_S1_M5_bnt162-01-A-adsl.csv,SCRFN,25,bnt162-01-A-adsl,phase1,144
FDA-CBER-2021-5683-1205306-1205308_27034_S1_M5_bnt162-01-A-adsl.csv,EXSCR1,26,bnt162-01-A-adsl,phase1,144
FDA-CBER-2021-5683-1205306-1205308_27034_S1_M5_bnt162-01-A-adsl.csv,SAFFL,27,bnt162-01-A-adsl,phase1,144
FDA-CBER-2021-5683-1205306-1205308_27034_S1_M5_bnt162-01-A-adsl.csv,SAFFN,28,bnt162-01-A-adsl,phase1,144
FDA-CBER-2021-5683-1205306-1205308_27034_S1_M5_bnt162-01-A-adsl.csv,EXSAF1,29,bnt162-01-A-adsl,phase1,144
FDA-CBER-2021-5683-1205306-1205308_27034_S1_M5_bnt162-01-A-adsl.csv,SAFBFL,30,bnt162-01-A-adsl,phase1,144
FDA-CBER-2021-5683-1205306-1205308_27034_S1_M5_bnt162-01-A-adsl.csv,SAFBFN,31,bnt162-01-A-adsl,phase1,144
FDA-CBER-2021-5683-1205306-1205308_27034_S1_M5_bnt162-01-A-adsl.csv,EXSAFB1,32,bnt162-01-A-adsl,phase1,144
FDA-CBER-2021-5683-1205306-1205308_27034_S1_M5_bnt162-01-A-adsl.csv,IMMFL,33,bnt162-01-A-adsl,phase1,144
FDA-CBER-2021-5683-1205306-1205308_27034_S1_M5_bnt162-01-A-adsl.csv,IMMFN,34,bnt162-01-A-adsl,phase1,144
FDA-CBER-2021-5683-1205306-1205308_27034_S1_M5_bnt162-01-A-adsl.csv,EXIMM1,35,bnt162-01-A-adsl,phase1,144
FDA-CBER-2021-5683-1205306-1205308_27034_S1_M5_bnt162-01-A-adsl.csv,PPROTFL,36,bnt162-01-A-adsl,phase1,144
FDA-CBER-2021-5683-1205306-1205308_27034_S1_M5_bnt162-01-A-adsl.csv,PPROTFN,37,bnt162-01-A-adsl,phase1,144
FDA-CBER-2021-5683-1205306-1205308_27034_S1_M5_bnt162-01-A-adsl.csv,EXPPROT1,38,bnt162-01-A-adsl,phase1,144
FDA-CBER-2021-5683-1205306-1205308_27034_S1_M5_bnt162-01-A-adsl.csv,CP7FL,39,bnt162-01-A-adsl,phase1,144
FDA-CBER-2021-5683-1205306-1205308_27034_S1_M5_bnt162-01-A-adsl.csv,CP7FN,40,bnt162-01-A-adsl,phase1,144
FDA-CBER-2021-5683-1205306-1205308_27034_S1_M5_bnt162-01-A-adsl.csv,CPBP28FL,41,bnt162-01-A-adsl,phase1,144
FDA-CBER-2021-5683-1205306-1205308_27034_S1_M5_bnt162-01-A-adsl.csv,CPBP28FN,42,bnt162-01-A-adsl,phase1,144
FDA-CBER-2021-5683-1205306-1205308_27034_S1_M5_bnt162-01-A-adsl.csv,CB7FL,43,bnt162-01-A-adsl,phase1,144
FDA-CBER-2021-5683-1205306-1205308_27034_S1_M5_bnt162-01-A-adsl.csv,CB7FN,44,bnt162-01-A-adsl,phase1,144
FDA-CBER-2021-5683-1205306-1205308_27034_S1_M5_bnt162-01-A-adsl.csv,CB28FL,45,bnt162-01-A-adsl,phase1,144
FDA-CBER-2021-5683-1205306-1205308_27034_S1_M5_bnt162-01-A-adsl.csv,CB28FN,46,bnt162-01-A-adsl,phase1,144
FDA-CBER-2021-5683-1205306-1205308_27034_S1_M5_bnt162-01-A-adsl.csv,CPB28FL,47,bnt162-01-A-adsl,phase1,144
FDA-CBER-2021-5683-1205306-1205308_27034_S1_M5_bnt162-01-A-adsl.csv,CPB28FN,48,bnt162-01-A-adsl,phase1,144
FDA-CBER-2021-5683-1205306-1205308_27034_S1_M5_bnt162-01-A-adsl.csv,COMPLFL,49,bnt162-01-A-adsl,phase1,144
FDA-CBER-2021-5683-1205306-1205308_27034_S1_M5_bnt162-01-A-adsl.csv,COMPLFN,50,bnt162-01-A-adsl,phase1,144
FDA-CBER-2021-5683-1205306-1205308_27034_S1_M5_bnt162-01-A-adsl.csv,COHORT,51,bnt162-01-A-adsl,phase1,144
FDA-CBER-2021-5683-1205306-1205308_27034_S1_M5_bnt162-01-A-adsl.csv,COHORTN,52,bnt162-01-A-adsl,phase1,144
FDA-CBER-2021-5683-1205306-1205308_27034_S1_M5_bnt162-01-A-adsl.csv,GROUP,53,bnt162-01-A-adsl,phase1,144
FDA-CBER-2021-5683-1205306-1205308_27034_S1_M5_bnt162-01-A-adsl.csv,GROUPN,54,bnt162-01-A-adsl,phase1,144
FDA-CBER-2021-5683-1205306-1205308_27034_S1_M5_bnt162-01-A-adsl.csv,ARM,55,bnt162-01-A-adsl,phase1,144
FDA-CBER-2021-5683-1205306-1205308_27034_S1_M5_bnt162-01-A-adsl.csv,ACTARM,56,bnt162-01-A-adsl,phase1,144
FDA-CBER-2021-5683-1205306-1205308_27034_S1_M5_bnt162-01-A-adsl.csv,TRT01P,57,bnt162-01-A-adsl,phase1,144
FDA-CBER-2021-5683-1205306-1205308_27034_S1_M5_bnt162-01-A-adsl.csv,TRT01PN,58,bnt162-01-A-adsl,phase1,144
FDA-CBER-2021-5683-1205306-1205308_27034_S1_M5_bnt162-01-A-adsl.csv,TRT01A,59,bnt162-01-A-adsl,phase1,144
FDA-CBER-2021-5683-1205306-1205308_27034_S1_M5_bnt162-01-A-adsl.csv,TRT01AN,60,bnt162-01-A-adsl,phase1,144
FDA-CBER-2021-5683-1205306-1205308_27034_S1_M5_bnt162-01-A-adsl.csv,TRTSDT,61,bnt162-01-A-adsl,phase1,144
FDA-CBER-2021-5683-1205306-1205308_27034_S1_M5_bnt162-01-A-adsl.csv,TRTSTM,62,bnt162-01-A-adsl,phase1,144
FDA-CBER-2021-5683-1205306-1205308_27034_S1_M5_bnt162-01-A-adsl.csv,TRTSDTM,63,bnt162-01-A-adsl,phase1,144
FDA-CBER-2021-5683-1205306-1205308_27034_S1_M5_bnt162-01-A-adsl.csv,TRTEDT,64,bnt162-01-A-adsl,phase1,144
FDA-CBER-2021-5683-1205306-1205308_27034_S1_M5_bnt162-01-A-adsl.csv,TRTETM,65,bnt162-01-A-adsl,phase1,144
FDA-CBER-2021-5683-1205306-1205308_27034_S1_M5_bnt162-01-A-adsl.csv,TRTEDTM,66,bnt162-01-A-adsl,phase1,144
FDA-CBER-2021-5683-1205306-1205308_27034_S1_M5_bnt162-01-A-adsl.csv,RFICDT,67,bnt162-01-A-adsl,phase1,144
FDA-CBER-2021-5683-1205306-1205308_27034_S1_M5_bnt162-01-A-adsl.csv,RFICTM,68,bnt162-01-A-adsl,phase1,144
FDA-CBER-2021-5683-1205306-1205308_27034_S1_M5_bnt162-01-A-adsl.csv,RFICDTM,69,bnt162-01-A-adsl,phase1,144
FDA-CBER-2021-5683-1205306-1205308_27034_S1_M5_bnt162-01-A-adsl.csv,SCRDT,70,bnt162-01-A-adsl,phase1,144
FDA-CBER-2021-5683-1205306-1205308_27034_S1_M5_bnt162-01-A-adsl.csv,ALLOCDT,71,bnt162-01-A-adsl,phase1,144
FDA-CBER-2021-5683-1205306-1205308_27034_S1_M5_bnt162-01-A-adsl.csv,ALLOCTM,72,bnt162-01-A-adsl,phase1,144
FDA-CBER-2021-5683-1205306-1205308_27034_S1_M5_bnt162-01-A-adsl.csv,ALLOCDTM,73,bnt162-01-A-adsl,phase1,144
FDA-CBER-2021-5683-1205306-1205308_27034_S1_M5_bnt162-01-A-adsl.csv,LVDT,74,bnt162-01-A-adsl,phase1,144
FDA-CBER-2021-5683-1205306-1205308_27034_S1_M5_bnt162-01-A-adsl.csv,EOSSTT,75,bnt162-01-A-adsl,phase1,144
FDA-CBER-2021-5683-1205306-1205308_27034_S1_M5_bnt162-01-A-adsl.csv,EOSDT,76,bnt162-01-A-adsl,phase1,144
FDA-CBER-2021-5683-1205306-1205308_27034_S1_M5_bnt162-01-A-adsl.csv,EOFUDT,77,bnt162-01-A-adsl,phase1,144
FDA-CBER-2021-5683-1205306-1205308_27034_S1_M5_bnt162-01-A-adsl.csv,DCSREAS,78,bnt162-01-A-adsl,phase1,144
FDA-CBER-2021-5683-1205306-1205308_27034_S1_M5_bnt162-01-A-adsl.csv,DCSREASP,79,bnt162-01-A-adsl,phase1,144
FDA-CBER-2021-5683-1205306-1205308_27034_S1_M5_bnt162-01-A-adsl.csv,DTHFL,80,bnt162-01-A-adsl,phase1,144
FDA-CBER-2021-5683-1205306-1205308_27034_S1_M5_bnt162-01-A-adsl.csv,DTHDT,81,bnt162-01-A-adsl,phase1,144
FDA-CBER-2021-5683-1205306-1205308_27034_S1_M5_bnt162-01-A-adsl.csv,PRIMDT,82,bnt162-01-A-adsl,phase1,144
FDA-CBER-2021-5683-1205306-1205308_27034_S1_M5_bnt162-01-A-adsl.csv,PRIMTM,83,bnt162-01-A-adsl,phase1,144
FDA-CBER-2021-5683-1205306-1205308_27034_S1_M5_bnt162-01-A-adsl.csv,PRIMDTM,84,bnt162-01-A-adsl,phase1,144
FDA-CBER-2021-5683-1205306-1205308_27034_S1_M5_bnt162-01-A-adsl.csv,BOIMDT,85,bnt162-01-A-adsl,phase1,144
FDA-CBER-2021-5683-1205306-1205308_27034_S1_M5_bnt162-01-A-adsl.csv,BOIMTM,86,bnt162-01-A-adsl,phase1,144
FDA-CBER-2021-5683-1205306-1205308_27034_S1_M5_bnt162-01-A-adsl.csv,BOIMDTM,87,bnt162-01-A-adsl,phase1,144
FDA-CBER-2021-5683-1205306-1205308_27034_S1_M5_bnt162-01-A-adsl.csv,DSEPRELI,88,bnt162-01-A-adsl,phase1,144
FDA-CBER-2021-5683-1205306-1205308_27034_S1_M5_bnt162-01-A-adsl.csv,PREV_TSN,89,bnt162-01-A-adsl,phase1,144
FDA-CBER-2021-5683-1205306-1205308_27034_S1_M5_bnt162-01-A-adsl.csv,FIRICDT,90,bnt162-01-A-adsl,phase1,144
FDA-CBER-2021-5683-1205306-1205308_27034_S1_M5_bnt162-01-A-adsl.csv,ICR1DT,91,bnt162-01-A-adsl,phase1,144
FDA-CBER-2021-5683-1205306-1205308_27034_S1_M5_bnt162-01-A-adsl.csv,ICR1TM,92,bnt162-01-A-adsl,phase1,144
FDA-CBER-2021-5683-1205306-1205308_27034_S1_M5_bnt162-01-A-adsl.csv,ICR1DTM,93,bnt162-01-A-adsl,phase1,144
FDA-CBER-2021-5683-1205306-1205308_27034_S1_M5_bnt162-01-A-adsl.csv,ICR2DT,94,bnt162-01-A-adsl,phase1,144
FDA-CBER-2021-5683-1205306-1205308_27034_S1_M5_bnt162-01-A-adsl.csv,ICR2TM,95,bnt162-01-A-adsl,phase1,144
FDA-CBER-2021-5683-1205306-1205308_27034_S1_M5_bnt162-01-A-adsl.csv,ICR2DTM,96,bnt162-01-A-adsl,phase1,144
FDA-CBER-2021-5683-1205306-1205308_27034_S1_M5_bnt162-01-A-adsl.csv,ICR3DT,97,bnt162-01-A-adsl,phase1,144
FDA-CBER-2021-5683-1205306-1205308_27034_S1_M5_bnt162-01-A-adsl.csv,ICR3TM,98,bnt162-01-A-adsl,phase1,144
FDA-CBER-2021-5683-1205306-1205308_27034_S1_M5_bnt162-01-A-adsl.csv,ICR3DTM,99,bnt162-01-A-adsl,phase1,144
FDA-CBER-2021-5683-1205306-1205308_27034_S1_M5_bnt162-01-A-adsl.csv,PROTVER1,100,bnt162-01-A-adsl,phase1,144
FDA-CBER-2021-5683-1205306-1205308_27034_S1_M5_bnt162-01-A-adsl.csv,PROTVER2,101,bnt162-01-A-adsl,phase1,144
FDA-CBER-2021-5683-1205306-1205308_27034_S1_M5_bnt162-01-A-adsl.csv,PROTVER3,102,bnt162-01-A-adsl,phase1,144
FDA-CBER-2021-5683-1205306-1205308_27034_S1_M5_bnt162-01-A-adsl.csv,PROTVER4,103,bnt162-01-A-adsl,phase1,144
FDA-CBER-2021-5683-1205309-1205400_27034_S1_M5_bnt162-01-A-adva.csv,STUDYID,1,bnt162-01-A-adva,phase1,3709
FDA-CBER-2021-5683-1205309-1205400_27034_S1_M5_bnt162-01-A-adva.csv,USUBJID,2,bnt162-01-A-adva,phase1,3709
FDA-CBER-2021-5683-1205309-1205400_27034_S1_M5_bnt162-01-A-adva.csv,SUBJID,3,bnt162-01-A-adva,phase1,3709
FDA-CBER-2021-5683-1205309-1205400_27034_S1_M5_bnt162-01-A-adva.csv,SITEID,4,bnt162-01-A-adva,phase1,3709
FDA-CBER-2021-5683-1205309-1205400_27034_S1_M5_bnt162-01-A-adva.csv,TRTP,5,bnt162-01-A-adva,phase1,3709
FDA-CBER-2021-5683-1205309-1205400_27034_S1_M5_bnt162-01-A-adva.csv,TRTPN,6,bnt162-01-A-adva,phase1,3709
FDA-CBER-2021-5683-1205309-1205400_27034_S1_M5_bnt162-01-A-adva.csv,TRTA,7,bnt162-01-A-adva,phase1,3709
FDA-CBER-2021-5683-1205309-1205400_27034_S1_M5_bnt162-01-A-adva.csv,TRTAN,8,bnt162-01-A-adva,phase1,3709
FDA-CBER-2021-5683-1205309-1205400_27034_S1_M5_bnt162-01-A-adva.csv,ADT,9,bnt162-01-A-adva,phase1,3709
FDA-CBER-2021-5683-1205309-1205400_27034_S1_M5_bnt162-01-A-adva.csv,ADTM,10,bnt162-01-A-adva,phase1,3709
FDA-CBER-2021-5683-1205309-1205400_27034_S1_M5_bnt162-01-A-adva.csv,ATM,11,bnt162-01-A-adva,phase1,3709
FDA-CBER-2021-5683-1205309-1205400_27034_S1_M5_bnt162-01-A-adva.csv,ADY,12,bnt162-01-A-adva,phase1,3709
FDA-CBER-2021-5683-1205309-1205400_27034_S1_M5_bnt162-01-A-adva.csv,AVISIT,13,bnt162-01-A-adva,phase1,3709
FDA-CBER-2021-5683-1205309-1205400_27034_S1_M5_bnt162-01-A-adva.csv,AVISITN,14,bnt162-01-A-adva,phase1,3709
FDA-CBER-2021-5683-1205309-1205400_27034_S1_M5_bnt162-01-A-adva.csv,PARAM,15,bnt162-01-A-adva,phase1,3709
FDA-CBER-2021-5683-1205309-1205400_27034_S1_M5_bnt162-01-A-adva.csv,PARAMCD,16,bnt162-01-A-adva,phase1,3709
FDA-CBER-2021-5683-1205309-1205400_27034_S1_M5_bnt162-01-A-adva.csv,PARAMN,17,bnt162-01-A-adva,phase1,3709
FDA-CBER-2021-5683-1205309-1205400_27034_S1_M5_bnt162-01-A-adva.csv,PARCAT1,18,bnt162-01-A-adva,phase1,3709
FDA-CBER-2021-5683-1205309-1205400_27034_S1_M5_bnt162-01-A-adva.csv,AVAL,19,bnt162-01-A-adva,phase1,3709
FDA-CBER-2021-5683-1205309-1205400_27034_S1_M5_bnt162-01-A-adva.csv,AVALC,20,bnt162-01-A-adva,phase1,3709
FDA-CBER-2021-5683-1205309-1205400_27034_S1_M5_bnt162-01-A-adva.csv,BASE,21,bnt162-01-A-adva,phase1,3709
FDA-CBER-2021-5683-1205309-1205400_27034_S1_M5_bnt162-01-A-adva.csv,CHG,22,bnt162-01-A-adva,phase1,3709
FDA-CBER-2021-5683-1205309-1205400_27034_S1_M5_bnt162-01-A-adva.csv,PCHG,23,bnt162-01-A-adva,phase1,3709
FDA-CBER-2021-5683-1205309-1205400_27034_S1_M5_bnt162-01-A-adva.csv,CRIT1,24,bnt162-01-A-adva,phase1,3709
FDA-CBER-2021-5683-1205309-1205400_27034_S1_M5_bnt162-01-A-adva.csv,CRIT1FL,25,bnt162-01-A-adva,phase1,3709
FDA-CBER-2021-5683-1205309-1205400_27034_S1_M5_bnt162-01-A-adva.csv,CRIT1FN,26,bnt162-01-A-adva,phase1,3709
FDA-CBER-2021-5683-1205309-1205400_27034_S1_M5_bnt162-01-A-adva.csv,DTYPE,27,bnt162-01-A-adva,phase1,3709
FDA-CBER-2021-5683-1205309-1205400_27034_S1_M5_bnt162-01-A-adva.csv,ABLFL,28,bnt162-01-A-adva,phase1,3709
FDA-CBER-2021-5683-1205309-1205400_27034_S1_M5_bnt162-01-A-adva.csv,ISLLOQ,29,bnt162-01-A-adva,phase1,3709
FDA-CBER-2021-5683-1205309-1205400_27034_S1_M5_bnt162-01-A-adva.csv,SAFFL,30,bnt162-01-A-adva,phase1,3709
FDA-CBER-2021-5683-1205309-1205400_27034_S1_M5_bnt162-01-A-adva.csv,SAFFN,31,bnt162-01-A-adva,phase1,3709
FDA-CBER-2021-5683-1205309-1205400_27034_S1_M5_bnt162-01-A-adva.csv,IMMFL,32,bnt162-01-A-adva,phase1,3709
FDA-CBER-2021-5683-1205309-1205400_27034_S1_M5_bnt162-01-A-adva.csv,IMMFN,33,bnt162-01-A-adva,phase1,3709
FDA-CBER-2021-5683-1205309-1205400_27034_S1_M5_bnt162-01-A-adva.csv,EXIMM1,34,bnt162-01-A-adva,phase1,3709
FDA-CBER-2021-5683-1205309-1205400_27034_S1_M5_bnt162-01-A-adva.csv,PPROTFL,35,bnt162-01-A-adva,phase1,3709
FDA-CBER-2021-5683-1205309-1205400_27034_S1_M5_bnt162-01-A-adva.csv,PPROTFN,36,bnt162-01-A-adva,phase1,3709
FDA-CBER-2021-5683-1205309-1205400_27034_S1_M5_bnt162-01-A-adva.csv,EXPPROT1,37,bnt162-01-A-adva,phase1,3709
FDA-CBER-2021-5683-1205309-1205400_27034_S1_M5_bnt162-01-A-adva.csv,COHORT,38,bnt162-01-A-adva,phase1,3709
FDA-CBER-2021-5683-1205309-1205400_27034_S1_M5_bnt162-01-A-adva.csv,COHORTN,39,bnt162-01-A-adva,phase1,3709
FDA-CBER-2021-5683-1205309-1205400_27034_S1_M5_bnt162-01-A-adva.csv,GROUP,40,bnt162-01-A-adva,phase1,3709
FDA-CBER-2021-5683-1205309-1205400_27034_S1_M5_bnt162-01-A-adva.csv,GROUPN,41,bnt162-01-A-adva,phase1,3709
FDA-CBER-2021-5683-1205309-1205400_27034_S1_M5_bnt162-01-A-adva.csv,SRCDOM,42,bnt162-01-A-adva,phase1,3709
FDA-CBER-2021-5683-1205309-1205400_27034_S1_M5_bnt162-01-A-adva.csv,SRCVAR,43,bnt162-01-A-adva,phase1,3709
FDA-CBER-2021-5683-1205309-1205400_27034_S1_M5_bnt162-01-A-adva.csv,SRCSEQ,44,bnt162-01-A-adva,phase1,3709
FDA-CBER-2021-5683-1205309-1205400_27034_S1_M5_bnt162-01-A-adva.csv,AGE,45,bnt162-01-A-adva,phase1,3709
FDA-CBER-2021-5683-1205309-1205400_27034_S1_M5_bnt162-01-A-adva.csv,AGEU,46,bnt162-01-A-adva,phase1,3709
FDA-CBER-2021-5683-1205309-1205400_27034_S1_M5_bnt162-01-A-adva.csv,AGEGR1,47,bnt162-01-A-adva,phase1,3709
FDA-CBER-2021-5683-1205309-1205400_27034_S1_M5_bnt162-01-A-adva.csv,AGEGR1N,48,bnt162-01-A-adva,phase1,3709
FDA-CBER-2021-5683-1205309-1205400_27034_S1_M5_bnt162-01-A-adva.csv,SEX,49,bnt162-01-A-adva,phase1,3709
FDA-CBER-2021-5683-1205309-1205400_27034_S1_M5_bnt162-01-A-adva.csv,SEXN,50,bnt162-01-A-adva,phase1,3709
FDA-CBER-2021-5683-1205309-1205400_27034_S1_M5_bnt162-01-A-adva.csv,TRTEDT,51,bnt162-01-A-adva,phase1,3709
FDA-CBER-2021-5683-1205309-1205400_27034_S1_M5_bnt162-01-A-adva.csv,TRTEDTM,52,bnt162-01-A-adva,phase1,3709
FDA-CBER-2021-5683-1205309-1205400_27034_S1_M5_bnt162-01-A-adva.csv,TRTSDT,53,bnt162-01-A-adva,phase1,3709
FDA-CBER-2021-5683-1205309-1205400_27034_S1_M5_bnt162-01-A-adva.csv,TRTSDTM,54,bnt162-01-A-adva,phase1,3709
FDA-CBER-2021-5683-1205309-1205400_27034_S1_M5_bnt162-01-A-adva.csv,ARM,55,bnt162-01-A-adva,phase1,3709
FDA-CBER-2021-5683-1205309-1205400_27034_S1_M5_bnt162-01-A-adva.csv,ACTARM,56,bnt162-01-A-adva,phase1,3709
FDA-CBER-2021-5683-1205309-1205400_27034_S1_M5_bnt162-01-A-adva.csv,BOIMDT,57,bnt162-01-A-adva,phase1,3709
FDA-CBER-2021-5683-1205309-1205400_27034_S1_M5_bnt162-01-A-adva.csv,BOIMDTM,58,bnt162-01-A-adva,phase1,3709
FDA-CBER-2021-5683-1205309-1205400_27034_S1_M5_bnt162-01-A-adva.csv,BOIMTM,59,bnt162-01-A-adva,phase1,3709
FDA-CBER-2021-5683-1205309-1205400_27034_S1_M5_bnt162-01-A-adva.csv,PRIMDT,60,bnt162-01-A-adva,phase1,3709
FDA-CBER-2021-5683-1205309-1205400_27034_S1_M5_bnt162-01-A-adva.csv,PRIMDTM,61,bnt162-01-A-adva,phase1,3709
FDA-CBER-2021-5683-1205309-1205400_27034_S1_M5_bnt162-01-A-adva.csv,PRIMTM,62,bnt162-01-A-adva,phase1,3709
FDA-CBER-2021-5683-1205401-1205682_27034_S1_M5_bnt162-01-A-advs.csv,STUDYID,1,bnt162-01-A-advs,phase1,11311
FDA-CBER-2021-5683-1205401-1205682_27034_S1_M5_bnt162-01-A-advs.csv,USUBJID,2,bnt162-01-A-advs,phase1,11311
FDA-CBER-2021-5683-1205401-1205682_27034_S1_M5_bnt162-01-A-advs.csv,SUBJID,3,bnt162-01-A-advs,phase1,11311
FDA-CBER-2021-5683-1205401-1205682_27034_S1_M5_bnt162-01-A-advs.csv,SUBJIDN,4,bnt162-01-A-advs,phase1,11311
FDA-CBER-2021-5683-1205401-1205682_27034_S1_M5_bnt162-01-A-advs.csv,COHORT,5,bnt162-01-A-advs,phase1,11311
FDA-CBER-2021-5683-1205401-1205682_27034_S1_M5_bnt162-01-A-advs.csv,COHORTN,6,bnt162-01-A-advs,phase1,11311
FDA-CBER-2021-5683-1205401-1205682_27034_S1_M5_bnt162-01-A-advs.csv,GROUP,7,bnt162-01-A-advs,phase1,11311
FDA-CBER-2021-5683-1205401-1205682_27034_S1_M5_bnt162-01-A-advs.csv,GROUPN,8,bnt162-01-A-advs,phase1,11311
FDA-CBER-2021-5683-1205401-1205682_27034_S1_M5_bnt162-01-A-advs.csv,TRTP,9,bnt162-01-A-advs,phase1,11311
FDA-CBER-2021-5683-1205401-1205682_27034_S1_M5_bnt162-01-A-advs.csv,TRTPN,10,bnt162-01-A-advs,phase1,11311
FDA-CBER-2021-5683-1205401-1205682_27034_S1_M5_bnt162-01-A-advs.csv,TRTA,11,bnt162-01-A-advs,phase1,11311
FDA-CBER-2021-5683-1205401-1205682_27034_S1_M5_bnt162-01-A-advs.csv,TRTAN,12,bnt162-01-A-advs,phase1,11311
FDA-CBER-2021-5683-1205401-1205682_27034_S1_M5_bnt162-01-A-advs.csv,VSSEQ,13,bnt162-01-A-advs,phase1,11311
FDA-CBER-2021-5683-1205401-1205682_27034_S1_M5_bnt162-01-A-advs.csv,ASEQ,14,bnt162-01-A-advs,phase1,11311
FDA-CBER-2021-5683-1205401-1205682_27034_S1_M5_bnt162-01-A-advs.csv,PARAM,15,bnt162-01-A-advs,phase1,11311
FDA-CBER-2021-5683-1205401-1205682_27034_S1_M5_bnt162-01-A-advs.csv,PARAMCD,16,bnt162-01-A-advs,phase1,11311
FDA-CBER-2021-5683-1205401-1205682_27034_S1_M5_bnt162-01-A-advs.csv,PARAMN,17,bnt162-01-A-advs,phase1,11311
FDA-CBER-2021-5683-1205401-1205682_27034_S1_M5_bnt162-01-A-advs.csv,PARCAT1,18,bnt162-01-A-advs,phase1,11311
FDA-CBER-2021-5683-1205401-1205682_27034_S1_M5_bnt162-01-A-advs.csv,PARCAT1N,19,bnt162-01-A-advs,phase1,11311
FDA-CBER-2021-5683-1205401-1205682_27034_S1_M5_bnt162-01-A-advs.csv,PARCAT2,20,bnt162-01-A-advs,phase1,11311
FDA-CBER-2021-5683-1205401-1205682_27034_S1_M5_bnt162-01-A-advs.csv,PARCAT2N,21,bnt162-01-A-advs,phase1,11311
FDA-CBER-2021-5683-1205401-1205682_27034_S1_M5_bnt162-01-A-advs.csv,VSPOS,22,bnt162-01-A-advs,phase1,11311
FDA-CBER-2021-5683-1205401-1205682_27034_S1_M5_bnt162-01-A-advs.csv,AVAL,23,bnt162-01-A-advs,phase1,11311
FDA-CBER-2021-5683-1205401-1205682_27034_S1_M5_bnt162-01-A-advs.csv,AVALC,24,bnt162-01-A-advs,phase1,11311
FDA-CBER-2021-5683-1205401-1205682_27034_S1_M5_bnt162-01-A-advs.csv,VSCLSIG,25,bnt162-01-A-advs,phase1,11311
FDA-CBER-2021-5683-1205401-1205682_27034_S1_M5_bnt162-01-A-advs.csv,VSCLSIGN,26,bnt162-01-A-advs,phase1,11311
FDA-CBER-2021-5683-1205401-1205682_27034_S1_M5_bnt162-01-A-advs.csv,ABLFL,27,bnt162-01-A-advs,phase1,11311
FDA-CBER-2021-5683-1205401-1205682_27034_S1_M5_bnt162-01-A-advs.csv,BASE,28,bnt162-01-A-advs,phase1,11311
FDA-CBER-2021-5683-1205401-1205682_27034_S1_M5_bnt162-01-A-advs.csv,BASEC,29,bnt162-01-A-advs,phase1,11311
FDA-CBER-2021-5683-1205401-1205682_27034_S1_M5_bnt162-01-A-advs.csv,CHG,30,bnt162-01-A-advs,phase1,11311
FDA-CBER-2021-5683-1205401-1205682_27034_S1_M5_bnt162-01-A-advs.csv,PCHG,31,bnt162-01-A-advs,phase1,11311
FDA-CBER-2021-5683-1205401-1205682_27034_S1_M5_bnt162-01-A-advs.csv,ANRIND,32,bnt162-01-A-advs,phase1,11311
FDA-CBER-2021-5683-1205401-1205682_27034_S1_M5_bnt162-01-A-advs.csv,BNRIND,33,bnt162-01-A-advs,phase1,11311
FDA-CBER-2021-5683-1205401-1205682_27034_S1_M5_bnt162-01-A-advs.csv,ANRLO,34,bnt162-01-A-advs,phase1,11311
FDA-CBER-2021-5683-1205401-1205682_27034_S1_M5_bnt162-01-A-advs.csv,ANRHI,35,bnt162-01-A-advs,phase1,11311
FDA-CBER-2021-5683-1205401-1205682_27034_S1_M5_bnt162-01-A-advs.csv,NABCS,36,bnt162-01-A-advs,phase1,11311
FDA-CBER-2021-5683-1205401-1205682_27034_S1_M5_bnt162-01-A-advs.csv,NABCSN,37,bnt162-01-A-advs,phase1,11311
FDA-CBER-2021-5683-1205401-1205682_27034_S1_M5_bnt162-01-A-advs.csv,ANL01FL,38,bnt162-01-A-advs,phase1,11311
FDA-CBER-2021-5683-1205401-1205682_27034_S1_M5_bnt162-01-A-advs.csv,ANL02FL,39,bnt162-01-A-advs,phase1,11311
FDA-CBER-2021-5683-1205401-1205682_27034_S1_M5_bnt162-01-A-advs.csv,UNSVFL,40,bnt162-01-A-advs,phase1,11311
FDA-CBER-2021-5683-1205401-1205682_27034_S1_M5_bnt162-01-A-advs.csv,POBLFL,41,bnt162-01-A-advs,phase1,11311
FDA-CBER-2021-5683-1205401-1205682_27034_S1_M5_bnt162-01-A-advs.csv,VSSTAT,42,bnt162-01-A-advs,phase1,11311
FDA-CBER-2021-5683-1205401-1205682_27034_S1_M5_bnt162-01-A-advs.csv,VSREASND,43,bnt162-01-A-advs,phase1,11311
FDA-CBER-2021-5683-1205401-1205682_27034_S1_M5_bnt162-01-A-advs.csv,VSLOC,44,bnt162-01-A-advs,phase1,11311
FDA-CBER-2021-5683-1205401-1205682_27034_S1_M5_bnt162-01-A-advs.csv,VSLAT,45,bnt162-01-A-advs,phase1,11311
FDA-CBER-2021-5683-1205401-1205682_27034_S1_M5_bnt162-01-A-advs.csv,VSDTC,46,bnt162-01-A-advs,phase1,11311
FDA-CBER-2021-5683-1205401-1205682_27034_S1_M5_bnt162-01-A-advs.csv,ADT,47,bnt162-01-A-advs,phase1,11311
FDA-CBER-2021-5683-1205401-1205682_27034_S1_M5_bnt162-01-A-advs.csv,ATM,48,bnt162-01-A-advs,phase1,11311
FDA-CBER-2021-5683-1205401-1205682_27034_S1_M5_bnt162-01-A-advs.csv,ADTM,49,bnt162-01-A-advs,phase1,11311
FDA-CBER-2021-5683-1205401-1205682_27034_S1_M5_bnt162-01-A-advs.csv,VSDY,50,bnt162-01-A-advs,phase1,11311
FDA-CBER-2021-5683-1205401-1205682_27034_S1_M5_bnt162-01-A-advs.csv,ADY,51,bnt162-01-A-advs,phase1,11311
FDA-CBER-2021-5683-1205401-1205682_27034_S1_M5_bnt162-01-A-advs.csv,VSTPT,52,bnt162-01-A-advs,phase1,11311
FDA-CBER-2021-5683-1205401-1205682_27034_S1_M5_bnt162-01-A-advs.csv,VSTPTNUM,53,bnt162-01-A-advs,phase1,11311
FDA-CBER-2021-5683-1205401-1205682_27034_S1_M5_bnt162-01-A-advs.csv,ATPT,54,bnt162-01-A-advs,phase1,11311
FDA-CBER-2021-5683-1205401-1205682_27034_S1_M5_bnt162-01-A-advs.csv,ATPTN,55,bnt162-01-A-advs,phase1,11311
FDA-CBER-2021-5683-1205401-1205682_27034_S1_M5_bnt162-01-A-advs.csv,VSTPTREF,56,bnt162-01-A-advs,phase1,11311
FDA-CBER-2021-5683-1205401-1205682_27034_S1_M5_bnt162-01-A-advs.csv,ATPTREF,57,bnt162-01-A-advs,phase1,11311
FDA-CBER-2021-5683-1205401-1205682_27034_S1_M5_bnt162-01-A-advs.csv,VSRFTDTC,58,bnt162-01-A-advs,phase1,11311
FDA-CBER-2021-5683-1205401-1205682_27034_S1_M5_bnt162-01-A-advs.csv,AVISIT,59,bnt162-01-A-advs,phase1,11311
FDA-CBER-2021-5683-1205401-1205682_27034_S1_M5_bnt162-01-A-advs.csv,AVISITN,60,bnt162-01-A-advs,phase1,11311
FDA-CBER-2021-5683-1205401-1205682_27034_S1_M5_bnt162-01-A-advs.csv,VISIT,61,bnt162-01-A-advs,phase1,11311
FDA-CBER-2021-5683-1205401-1205682_27034_S1_M5_bnt162-01-A-advs.csv,VISITNUM,62,bnt162-01-A-advs,phase1,11311
FDA-CBER-2021-5683-1205401-1205682_27034_S1_M5_bnt162-01-A-advs.csv,EPOCH,63,bnt162-01-A-advs,phase1,11311
FDA-CBER-2021-5683-1205401-1205682_27034_S1_M5_bnt162-01-A-advs.csv,AGE,64,bnt162-01-A-advs,phase1,11311
FDA-CBER-2021-5683-1205401-1205682_27034_S1_M5_bnt162-01-A-advs.csv,AGEU,65,bnt162-01-A-advs,phase1,11311
FDA-CBER-2021-5683-1205401-1205682_27034_S1_M5_bnt162-01-A-advs.csv,SEX,66,bnt162-01-A-advs,phase1,11311
FDA-CBER-2021-5683-1205401-1205682_27034_S1_M5_bnt162-01-A-advs.csv,SEXN,67,bnt162-01-A-advs,phase1,11311
FDA-CBER-2021-5683-1205401-1205682_27034_S1_M5_bnt162-01-A-advs.csv,RACE,68,bnt162-01-A-advs,phase1,11311
FDA-CBER-2021-5683-1205401-1205682_27034_S1_M5_bnt162-01-A-advs.csv,RACEN,69,bnt162-01-A-advs,phase1,11311
FDA-CBER-2021-5683-1205401-1205682_27034_S1_M5_bnt162-01-A-advs.csv,SCRFL,70,bnt162-01-A-advs,phase1,11311
FDA-CBER-2021-5683-1205401-1205682_27034_S1_M5_bnt162-01-A-advs.csv,SCRFN,71,bnt162-01-A-advs,phase1,11311
FDA-CBER-2021-5683-1205401-1205682_27034_S1_M5_bnt162-01-A-advs.csv,SAFFL,72,bnt162-01-A-advs,phase1,11311
FDA-CBER-2021-5683-1205401-1205682_27034_S1_M5_bnt162-01-A-advs.csv,SAFFN,73,bnt162-01-A-advs,phase1,11311
FDA-CBER-2021-5683-1205401-1205682_27034_S1_M5_bnt162-01-A-advs.csv,SAFBFL,74,bnt162-01-A-advs,phase1,11311
FDA-CBER-2021-5683-1205401-1205682_27034_S1_M5_bnt162-01-A-advs.csv,SAFBFN,75,bnt162-01-A-advs,phase1,11311
FDA-CBER-2021-5683-1205401-1205682_27034_S1_M5_bnt162-01-A-advs.csv,IMMFL,76,bnt162-01-A-advs,phase1,11311
FDA-CBER-2021-5683-1205401-1205682_27034_S1_M5_bnt162-01-A-advs.csv,IMMFN,77,bnt162-01-A-advs,phase1,11311
FDA-CBER-2021-5683-1205401-1205682_27034_S1_M5_bnt162-01-A-advs.csv,PPROTFL,78,bnt162-01-A-advs,phase1,11311
FDA-CBER-2021-5683-1205401-1205682_27034_S1_M5_bnt162-01-A-advs.csv,PPROTFN,79,bnt162-01-A-advs,phase1,11311
FDA-CBER-2021-5683-1205401-1205682_27034_S1_M5_bnt162-01-A-advs.csv,EXPPROT1,80,bnt162-01-A-advs,phase1,11311
FDA-CBER-2021-5683-1205401-1205682_27034_S1_M5_bnt162-01-A-advs.csv,CP7FL,81,bnt162-01-A-advs,phase1,11311
FDA-CBER-2021-5683-1205401-1205682_27034_S1_M5_bnt162-01-A-advs.csv,CP7FN,82,bnt162-01-A-advs,phase1,11311
FDA-CBER-2021-5683-1205401-1205682_27034_S1_M5_bnt162-01-A-advs.csv,CPBP28FL,83,bnt162-01-A-advs,phase1,11311
FDA-CBER-2021-5683-1205401-1205682_27034_S1_M5_bnt162-01-A-advs.csv,CPBP28FN,84,bnt162-01-A-advs,phase1,11311
FDA-CBER-2021-5683-1205401-1205682_27034_S1_M5_bnt162-01-A-advs.csv,CB7FL,85,bnt162-01-A-advs,phase1,11311
FDA-CBER-2021-5683-1205401-1205682_27034_S1_M5_bnt162-01-A-advs.csv,CB7FN,86,bnt162-01-A-advs,phase1,11311
FDA-CBER-2021-5683-1205401-1205682_27034_S1_M5_bnt162-01-A-advs.csv,CB28FL,87,bnt162-01-A-advs,phase1,11311
FDA-CBER-2021-5683-1205401-1205682_27034_S1_M5_bnt162-01-A-advs.csv,CB28FN,88,bnt162-01-A-advs,phase1,11311
FDA-CBER-2021-5683-1205401-1205682_27034_S1_M5_bnt162-01-A-advs.csv,CPB28FL,89,bnt162-01-A-advs,phase1,11311
FDA-CBER-2021-5683-1205401-1205682_27034_S1_M5_bnt162-01-A-advs.csv,CPB28FN,90,bnt162-01-A-advs,phase1,11311
FDA-CBER-2021-5683-1205401-1205682_27034_S1_M5_bnt162-01-A-advs.csv,COMPLFL,91,bnt162-01-A-advs,phase1,11311
FDA-CBER-2021-5683-1205401-1205682_27034_S1_M5_bnt162-01-A-advs.csv,COMPLFN,92,bnt162-01-A-advs,phase1,11311
FDA-CBER-2021-5683-1205401-1205682_27034_S1_M5_bnt162-01-A-advs.csv,TRTSDT,93,bnt162-01-A-advs,phase1,11311
FDA-CBER-2021-5683-1205401-1205682_27034_S1_M5_bnt162-01-A-advs.csv,TRTSTM,94,bnt162-01-A-advs,phase1,11311
FDA-CBER-2021-5683-1205401-1205682_27034_S1_M5_bnt162-01-A-advs.csv,TRTSDTM,95,bnt162-01-A-advs,phase1,11311
FDA-CBER-2021-5683-1205401-1205682_27034_S1_M5_bnt162-01-A-advs.csv,TRTEDT,96,bnt162-01-A-advs,phase1,11311
FDA-CBER-2021-5683-1205401-1205682_27034_S1_M5_bnt162-01-A-advs.csv,TRTETM,97,bnt162-01-A-advs,phase1,11311
FDA-CBER-2021-5683-1205401-1205682_27034_S1_M5_bnt162-01-A-advs.csv,TRTEDTM,98,bnt162-01-A-advs,phase1,11311
FDA-CBER-2021-5683-1205401-1205682_27034_S1_M5_bnt162-01-A-advs.csv,ALLOCDT,99,bnt162-01-A-advs,phase1,11311
FDA-CBER-2021-5683-1205401-1205682_27034_S1_M5_bnt162-01-A-advs.csv,ALLOCTM,100,bnt162-01-A-advs,phase1,11311
FDA-CBER-2021-5683-1205401-1205682_27034_S1_M5_bnt162-01-A-advs.csv,ALLOCDTM,101,bnt162-01-A-advs,phase1,11311
FDA-CBER-2021-5683-1205401-1205682_27034_S1_M5_bnt162-01-A-advs.csv,SRCDOM,102,bnt162-01-A-advs,phase1,11311
FDA-CBER-2021-5683-1205401-1205682_27034_S1_M5_bnt162-01-A-advs.csv,SRCVAR,103,bnt162-01-A-advs,phase1,11311
FDA-CBER-2021-5683-1205401-1205682_27034_S1_M5_bnt162-01-A-advs.csv,SRCSEQ,104,bnt162-01-A-advs,phase1,11311
FDA-CBER-2021-5683-1205925-1205936_27034_S1_M5_bnt162-01-S-ae.csv,STUDYID,1,bnt162-01-S-ae,phase1,501
FDA-CBER-2021-5683-1205925-1205936_27034_S1_M5_bnt162-01-S-ae.csv,DOMAIN,2,bnt162-01-S-ae,phase1,501
FDA-CBER-2021-5683-1205925-1205936_27034_S1_M5_bnt162-01-S-ae.csv,USUBJID,3,bnt162-01-S-ae,phase1,501
FDA-CBER-2021-5683-1205925-1205936_27034_S1_M5_bnt162-01-S-ae.csv,AESEQ,4,bnt162-01-S-ae,phase1,501
FDA-CBER-2021-5683-1205925-1205936_27034_S1_M5_bnt162-01-S-ae.csv,AEGRPID,5,bnt162-01-S-ae,phase1,501
FDA-CBER-2021-5683-1205925-1205936_27034_S1_M5_bnt162-01-S-ae.csv,AESPID,6,bnt162-01-S-ae,phase1,501
FDA-CBER-2021-5683-1205925-1205936_27034_S1_M5_bnt162-01-S-ae.csv,AETERM,7,bnt162-01-S-ae,phase1,501
FDA-CBER-2021-5683-1205925-1205936_27034_S1_M5_bnt162-01-S-ae.csv,AEMODIFY,8,bnt162-01-S-ae,phase1,501
FDA-CBER-2021-5683-1205925-1205936_27034_S1_M5_bnt162-01-S-ae.csv,AELLT,9,bnt162-01-S-ae,phase1,501
FDA-CBER-2021-5683-1205925-1205936_27034_S1_M5_bnt162-01-S-ae.csv,AELLTCD,10,bnt162-01-S-ae,phase1,501
FDA-CBER-2021-5683-1205925-1205936_27034_S1_M5_bnt162-01-S-ae.csv,AEDECOD,11,bnt162-01-S-ae,phase1,501
FDA-CBER-2021-5683-1205925-1205936_27034_S1_M5_bnt162-01-S-ae.csv,AEPTCD,12,bnt162-01-S-ae,phase1,501
FDA-CBER-2021-5683-1205925-1205936_27034_S1_M5_bnt162-01-S-ae.csv,AEHLT,13,bnt162-01-S-ae,phase1,501
FDA-CBER-2021-5683-1205925-1205936_27034_S1_M5_bnt162-01-S-ae.csv,AEHLTCD,14,bnt162-01-S-ae,phase1,501
FDA-CBER-2021-5683-1205925-1205936_27034_S1_M5_bnt162-01-S-ae.csv,AEHLGT,15,bnt162-01-S-ae,phase1,501
FDA-CBER-2021-5683-1205925-1205936_27034_S1_M5_bnt162-01-S-ae.csv,AEHLGTCD,16,bnt162-01-S-ae,phase1,501
FDA-CBER-2021-5683-1205925-1205936_27034_S1_M5_bnt162-01-S-ae.csv,AECAT,17,bnt162-01-S-ae,phase1,501
FDA-CBER-2021-5683-1205925-1205936_27034_S1_M5_bnt162-01-S-ae.csv,AEBODSYS,18,bnt162-01-S-ae,phase1,501
FDA-CBER-2021-5683-1205925-1205936_27034_S1_M5_bnt162-01-S-ae.csv,AEBDSYCD,19,bnt162-01-S-ae,phase1,501
FDA-CBER-2021-5683-1205925-1205936_27034_S1_M5_bnt162-01-S-ae.csv,AESOC,20,bnt162-01-S-ae,phase1,501
FDA-CBER-2021-5683-1205925-1205936_27034_S1_M5_bnt162-01-S-ae.csv,AESOCCD,21,bnt162-01-S-ae,phase1,501
FDA-CBER-2021-5683-1205925-1205936_27034_S1_M5_bnt162-01-S-ae.csv,AESEV,22,bnt162-01-S-ae,phase1,501
FDA-CBER-2021-5683-1205925-1205936_27034_S1_M5_bnt162-01-S-ae.csv,AESER,23,bnt162-01-S-ae,phase1,501
FDA-CBER-2021-5683-1205925-1205936_27034_S1_M5_bnt162-01-S-ae.csv,AEACN,24,bnt162-01-S-ae,phase1,501
FDA-CBER-2021-5683-1205925-1205936_27034_S1_M5_bnt162-01-S-ae.csv,AEREL,25,bnt162-01-S-ae,phase1,501
FDA-CBER-2021-5683-1205925-1205936_27034_S1_M5_bnt162-01-S-ae.csv,AEOUT,26,bnt162-01-S-ae,phase1,501
FDA-CBER-2021-5683-1205925-1205936_27034_S1_M5_bnt162-01-S-ae.csv,AESCONG,27,bnt162-01-S-ae,phase1,501
FDA-CBER-2021-5683-1205925-1205936_27034_S1_M5_bnt162-01-S-ae.csv,AESDISAB,28,bnt162-01-S-ae,phase1,501
FDA-CBER-2021-5683-1205925-1205936_27034_S1_M5_bnt162-01-S-ae.csv,AESDTH,29,bnt162-01-S-ae,phase1,501
FDA-CBER-2021-5683-1205925-1205936_27034_S1_M5_bnt162-01-S-ae.csv,AESHOSP,30,bnt162-01-S-ae,phase1,501
FDA-CBER-2021-5683-1205925-1205936_27034_S1_M5_bnt162-01-S-ae.csv,AESLIFE,31,bnt162-01-S-ae,phase1,501
FDA-CBER-2021-5683-1205925-1205936_27034_S1_M5_bnt162-01-S-ae.csv,AESMIE,32,bnt162-01-S-ae,phase1,501
FDA-CBER-2021-5683-1205925-1205936_27034_S1_M5_bnt162-01-S-ae.csv,AECONTRT,33,bnt162-01-S-ae,phase1,501
FDA-CBER-2021-5683-1205925-1205936_27034_S1_M5_bnt162-01-S-ae.csv,AETOXGR,34,bnt162-01-S-ae,phase1,501
FDA-CBER-2021-5683-1205925-1205936_27034_S1_M5_bnt162-01-S-ae.csv,EPOCH,35,bnt162-01-S-ae,phase1,501
FDA-CBER-2021-5683-1205925-1205936_27034_S1_M5_bnt162-01-S-ae.csv,AESTDTC,36,bnt162-01-S-ae,phase1,501
FDA-CBER-2021-5683-1205925-1205936_27034_S1_M5_bnt162-01-S-ae.csv,AEENDTC,37,bnt162-01-S-ae,phase1,501
FDA-CBER-2021-5683-1205925-1205936_27034_S1_M5_bnt162-01-S-ae.csv,AESTDY,38,bnt162-01-S-ae,phase1,501
FDA-CBER-2021-5683-1205925-1205936_27034_S1_M5_bnt162-01-S-ae.csv,AEENDY,39,bnt162-01-S-ae,phase1,501
FDA-CBER-2021-5683-1205925-1205936_27034_S1_M5_bnt162-01-S-ae.csv,AEENRTPT,40,bnt162-01-S-ae,phase1,501
FDA-CBER-2021-5683-1205925-1205936_27034_S1_M5_bnt162-01-S-ae.csv,AEENTPT,41,bnt162-01-S-ae,phase1,501
FDA-CBER-2021-5683-1205937-1206029_27034_S1_M5_bnt162-01-S-ce.csv,STUDYID,1,bnt162-01-S-ce,phase1,3734
FDA-CBER-2021-5683-1205937-1206029_27034_S1_M5_bnt162-01-S-ce.csv,DOMAIN,2,bnt162-01-S-ce,phase1,3734
FDA-CBER-2021-5683-1205937-1206029_27034_S1_M5_bnt162-01-S-ce.csv,USUBJID,3,bnt162-01-S-ce,phase1,3734
FDA-CBER-2021-5683-1205937-1206029_27034_S1_M5_bnt162-01-S-ce.csv,CESEQ,4,bnt162-01-S-ce,phase1,3734
FDA-CBER-2021-5683-1205937-1206029_27034_S1_M5_bnt162-01-S-ce.csv,CEGRPID,5,bnt162-01-S-ce,phase1,3734
FDA-CBER-2021-5683-1205937-1206029_27034_S1_M5_bnt162-01-S-ce.csv,CELNKGRP,6,bnt162-01-S-ce,phase1,3734
FDA-CBER-2021-5683-1205937-1206029_27034_S1_M5_bnt162-01-S-ce.csv,CETERM,7,bnt162-01-S-ce,phase1,3734
FDA-CBER-2021-5683-1205937-1206029_27034_S1_M5_bnt162-01-S-ce.csv,CELLT,8,bnt162-01-S-ce,phase1,3734
FDA-CBER-2021-5683-1205937-1206029_27034_S1_M5_bnt162-01-S-ce.csv,CELLTCD,9,bnt162-01-S-ce,phase1,3734
FDA-CBER-2021-5683-1205937-1206029_27034_S1_M5_bnt162-01-S-ce.csv,CEDECOD,10,bnt162-01-S-ce,phase1,3734
FDA-CBER-2021-5683-1205937-1206029_27034_S1_M5_bnt162-01-S-ce.csv,CEPTCD,11,bnt162-01-S-ce,phase1,3734
FDA-CBER-2021-5683-1205937-1206029_27034_S1_M5_bnt162-01-S-ce.csv,CEHLT,12,bnt162-01-S-ce,phase1,3734
FDA-CBER-2021-5683-1205937-1206029_27034_S1_M5_bnt162-01-S-ce.csv,CEHLTCD,13,bnt162-01-S-ce,phase1,3734
FDA-CBER-2021-5683-1205937-1206029_27034_S1_M5_bnt162-01-S-ce.csv,CEHLGT,14,bnt162-01-S-ce,phase1,3734
FDA-CBER-2021-5683-1205937-1206029_27034_S1_M5_bnt162-01-S-ce.csv,CEHLGTCD,15,bnt162-01-S-ce,phase1,3734
FDA-CBER-2021-5683-1205937-1206029_27034_S1_M5_bnt162-01-S-ce.csv,CECAT,16,bnt162-01-S-ce,phase1,3734
FDA-CBER-2021-5683-1205937-1206029_27034_S1_M5_bnt162-01-S-ce.csv,CESCAT,17,bnt162-01-S-ce,phase1,3734
FDA-CBER-2021-5683-1205937-1206029_27034_S1_M5_bnt162-01-S-ce.csv,CEPRESP,18,bnt162-01-S-ce,phase1,3734
FDA-CBER-2021-5683-1205937-1206029_27034_S1_M5_bnt162-01-S-ce.csv,CEOCCUR,19,bnt162-01-S-ce,phase1,3734
FDA-CBER-2021-5683-1205937-1206029_27034_S1_M5_bnt162-01-S-ce.csv,CEBODSYS,20,bnt162-01-S-ce,phase1,3734
FDA-CBER-2021-5683-1205937-1206029_27034_S1_M5_bnt162-01-S-ce.csv,CEBDSYCD,21,bnt162-01-S-ce,phase1,3734
FDA-CBER-2021-5683-1205937-1206029_27034_S1_M5_bnt162-01-S-ce.csv,CESOC,22,bnt162-01-S-ce,phase1,3734
FDA-CBER-2021-5683-1205937-1206029_27034_S1_M5_bnt162-01-S-ce.csv,CESOCCD,23,bnt162-01-S-ce,phase1,3734
FDA-CBER-2021-5683-1205937-1206029_27034_S1_M5_bnt162-01-S-ce.csv,CESEV,24,bnt162-01-S-ce,phase1,3734
FDA-CBER-2021-5683-1205937-1206029_27034_S1_M5_bnt162-01-S-ce.csv,EPOCH,25,bnt162-01-S-ce,phase1,3734
FDA-CBER-2021-5683-1205937-1206029_27034_S1_M5_bnt162-01-S-ce.csv,CESTDTC,26,bnt162-01-S-ce,phase1,3734
FDA-CBER-2021-5683-1205937-1206029_27034_S1_M5_bnt162-01-S-ce.csv,CEENDTC,27,bnt162-01-S-ce,phase1,3734
FDA-CBER-2021-5683-1205937-1206029_27034_S1_M5_bnt162-01-S-ce.csv,CESTDY,28,bnt162-01-S-ce,phase1,3734
FDA-CBER-2021-5683-1205937-1206029_27034_S1_M5_bnt162-01-S-ce.csv,CEENDY,29,bnt162-01-S-ce,phase1,3734
FDA-CBER-2021-5683-1205937-1206029_27034_S1_M5_bnt162-01-S-ce.csv,CEDUR,30,bnt162-01-S-ce,phase1,3734
FDA-CBER-2021-5683-1205937-1206029_27034_S1_M5_bnt162-01-S-ce.csv,CETPT,31,bnt162-01-S-ce,phase1,3734
FDA-CBER-2021-5683-1205937-1206029_27034_S1_M5_bnt162-01-S-ce.csv,CETPTNUM,32,bnt162-01-S-ce,phase1,3734
FDA-CBER-2021-5683-1205937-1206029_27034_S1_M5_bnt162-01-S-ce.csv,CETPTREF,33,bnt162-01-S-ce,phase1,3734
FDA-CBER-2021-5683-1205937-1206029_27034_S1_M5_bnt162-01-S-ce.csv,CERFTDTC,34,bnt162-01-S-ce,phase1,3734
FDA-CBER-2021-5683-1205937-1206029_27034_S1_M5_bnt162-01-S-ce.csv,CEEVINTX,35,bnt162-01-S-ce,phase1,3734
FDA-CBER-2021-5683-1205937-1206029_27034_S1_M5_bnt162-01-S-ce.csv,CEENRTPT,36,bnt162-01-S-ce,phase1,3734
FDA-CBER-2021-5683-1205937-1206029_27034_S1_M5_bnt162-01-S-ce.csv,CEENTPT,37,bnt162-01-S-ce,phase1,3734
FDA-CBER-2021-5683-1206030-1206035_27034_S1_M5_bnt162-01-S-cm.csv,STUDYID,1,bnt162-01-S-cm,phase1,261
FDA-CBER-2021-5683-1206030-1206035_27034_S1_M5_bnt162-01-S-cm.csv,DOMAIN,2,bnt162-01-S-cm,phase1,261
FDA-CBER-2021-5683-1206030-1206035_27034_S1_M5_bnt162-01-S-cm.csv,USUBJID,3,bnt162-01-S-cm,phase1,261
FDA-CBER-2021-5683-1206030-1206035_27034_S1_M5_bnt162-01-S-cm.csv,CMSEQ,4,bnt162-01-S-cm,phase1,261
FDA-CBER-2021-5683-1206030-1206035_27034_S1_M5_bnt162-01-S-cm.csv,CMTRT,5,bnt162-01-S-cm,phase1,261
FDA-CBER-2021-5683-1206030-1206035_27034_S1_M5_bnt162-01-S-cm.csv,CMMODIFY,6,bnt162-01-S-cm,phase1,261
FDA-CBER-2021-5683-1206030-1206035_27034_S1_M5_bnt162-01-S-cm.csv,CMDECOD,7,bnt162-01-S-cm,phase1,261
FDA-CBER-2021-5683-1206030-1206035_27034_S1_M5_bnt162-01-S-cm.csv,CMINDC,8,bnt162-01-S-cm,phase1,261
FDA-CBER-2021-5683-1206030-1206035_27034_S1_M5_bnt162-01-S-cm.csv,CMDOSTXT,9,bnt162-01-S-cm,phase1,261
FDA-CBER-2021-5683-1206030-1206035_27034_S1_M5_bnt162-01-S-cm.csv,CMDOSU,10,bnt162-01-S-cm,phase1,261
FDA-CBER-2021-5683-1206030-1206035_27034_S1_M5_bnt162-01-S-cm.csv,CMDOSFRQ,11,bnt162-01-S-cm,phase1,261
FDA-CBER-2021-5683-1206030-1206035_27034_S1_M5_bnt162-01-S-cm.csv,CMROUTE,12,bnt162-01-S-cm,phase1,261
FDA-CBER-2021-5683-1206030-1206035_27034_S1_M5_bnt162-01-S-cm.csv,EPOCH,13,bnt162-01-S-cm,phase1,261
FDA-CBER-2021-5683-1206030-1206035_27034_S1_M5_bnt162-01-S-cm.csv,CMSTDTC,14,bnt162-01-S-cm,phase1,261
FDA-CBER-2021-5683-1206030-1206035_27034_S1_M5_bnt162-01-S-cm.csv,CMENDTC,15,bnt162-01-S-cm,phase1,261
FDA-CBER-2021-5683-1206030-1206035_27034_S1_M5_bnt162-01-S-cm.csv,CMSTDY,16,bnt162-01-S-cm,phase1,261
FDA-CBER-2021-5683-1206030-1206035_27034_S1_M5_bnt162-01-S-cm.csv,CMENDY,17,bnt162-01-S-cm,phase1,261
FDA-CBER-2021-5683-1206030-1206035_27034_S1_M5_bnt162-01-S-cm.csv,CMSTRTPT,18,bnt162-01-S-cm,phase1,261
FDA-CBER-2021-5683-1206030-1206035_27034_S1_M5_bnt162-01-S-cm.csv,CMSTTPT,19,bnt162-01-S-cm,phase1,261
FDA-CBER-2021-5683-1206030-1206035_27034_S1_M5_bnt162-01-S-cm.csv,CMENRTPT,20,bnt162-01-S-cm,phase1,261
FDA-CBER-2021-5683-1206030-1206035_27034_S1_M5_bnt162-01-S-cm.csv,CMENTPT,21,bnt162-01-S-cm,phase1,261
FDA-CBER-2021-5683-1206036-1206040_27034_S1_M5_bnt162-01-S-co.csv,STUDYID,1,bnt162-01-S-co,phase1,206
FDA-CBER-2021-5683-1206036-1206040_27034_S1_M5_bnt162-01-S-co.csv,DOMAIN,2,bnt162-01-S-co,phase1,206
FDA-CBER-2021-5683-1206036-1206040_27034_S1_M5_bnt162-01-S-co.csv,RDOMAIN,3,bnt162-01-S-co,phase1,206
FDA-CBER-2021-5683-1206036-1206040_27034_S1_M5_bnt162-01-S-co.csv,USUBJID,4,bnt162-01-S-co,phase1,206
FDA-CBER-2021-5683-1206036-1206040_27034_S1_M5_bnt162-01-S-co.csv,COSEQ,5,bnt162-01-S-co,phase1,206
FDA-CBER-2021-5683-1206036-1206040_27034_S1_M5_bnt162-01-S-co.csv,IDVAR,6,bnt162-01-S-co,phase1,206
FDA-CBER-2021-5683-1206036-1206040_27034_S1_M5_bnt162-01-S-co.csv,IDVARVAL,7,bnt162-01-S-co,phase1,206
FDA-CBER-2021-5683-1206036-1206040_27034_S1_M5_bnt162-01-S-co.csv,COREF,8,bnt162-01-S-co,phase1,206
FDA-CBER-2021-5683-1206036-1206040_27034_S1_M5_bnt162-01-S-co.csv,COVAL,9,bnt162-01-S-co,phase1,206
FDA-CBER-2021-5683-1206036-1206040_27034_S1_M5_bnt162-01-S-co.csv,COVAL1,10,bnt162-01-S-co,phase1,206
FDA-CBER-2021-5683-1206036-1206040_27034_S1_M5_bnt162-01-S-co.csv,COEVAL,11,bnt162-01-S-co,phase1,206
FDA-CBER-2021-5683-1206036-1206040_27034_S1_M5_bnt162-01-S-co.csv,CODTC,12,bnt162-01-S-co,phase1,206
FDA-CBER-2021-5683-1206036-1206040_27034_S1_M5_bnt162-01-S-co.csv,CODY,13,bnt162-01-S-co,phase1,206
FDA-CBER-2021-5683-1206322-1206324_27034_S1_M5_bnt162-01-S-dm.csv,STUDYID,1,bnt162-01-S-dm,phase1,144
FDA-CBER-2021-5683-1206322-1206324_27034_S1_M5_bnt162-01-S-dm.csv,DOMAIN,2,bnt162-01-S-dm,phase1,144
FDA-CBER-2021-5683-1206322-1206324_27034_S1_M5_bnt162-01-S-dm.csv,USUBJID,3,bnt162-01-S-dm,phase1,144
FDA-CBER-2021-5683-1206322-1206324_27034_S1_M5_bnt162-01-S-dm.csv,SUBJID,4,bnt162-01-S-dm,phase1,144
FDA-CBER-2021-5683-1206322-1206324_27034_S1_M5_bnt162-01-S-dm.csv,RFSTDTC,5,bnt162-01-S-dm,phase1,144
FDA-CBER-2021-5683-1206322-1206324_27034_S1_M5_bnt162-01-S-dm.csv,RFENDTC,6,bnt162-01-S-dm,phase1,144
FDA-CBER-2021-5683-1206322-1206324_27034_S1_M5_bnt162-01-S-dm.csv,RFXSTDTC,7,bnt162-01-S-dm,phase1,144
FDA-CBER-2021-5683-1206322-1206324_27034_S1_M5_bnt162-01-S-dm.csv,RFXENDTC,8,bnt162-01-S-dm,phase1,144
FDA-CBER-2021-5683-1206322-1206324_27034_S1_M5_bnt162-01-S-dm.csv,RFICDTC,9,bnt162-01-S-dm,phase1,144
FDA-CBER-2021-5683-1206322-1206324_27034_S1_M5_bnt162-01-S-dm.csv,RFPENDTC,10,bnt162-01-S-dm,phase1,144
FDA-CBER-2021-5683-1206322-1206324_27034_S1_M5_bnt162-01-S-dm.csv,DTHDTC,11,bnt162-01-S-dm,phase1,144
FDA-CBER-2021-5683-1206322-1206324_27034_S1_M5_bnt162-01-S-dm.csv,DTHFL,12,bnt162-01-S-dm,phase1,144
FDA-CBER-2021-5683-1206322-1206324_27034_S1_M5_bnt162-01-S-dm.csv,SITEID,13,bnt162-01-S-dm,phase1,144
FDA-CBER-2021-5683-1206322-1206324_27034_S1_M5_bnt162-01-S-dm.csv,INVID,14,bnt162-01-S-dm,phase1,144
FDA-CBER-2021-5683-1206322-1206324_27034_S1_M5_bnt162-01-S-dm.csv,INVNAM,15,bnt162-01-S-dm,phase1,144
FDA-CBER-2021-5683-1206322-1206324_27034_S1_M5_bnt162-01-S-dm.csv,AGE,16,bnt162-01-S-dm,phase1,144
FDA-CBER-2021-5683-1206322-1206324_27034_S1_M5_bnt162-01-S-dm.csv,AGEU,17,bnt162-01-S-dm,phase1,144
FDA-CBER-2021-5683-1206322-1206324_27034_S1_M5_bnt162-01-S-dm.csv,SEX,18,bnt162-01-S-dm,phase1,144
FDA-CBER-2021-5683-1206322-1206324_27034_S1_M5_bnt162-01-S-dm.csv,RACE,19,bnt162-01-S-dm,phase1,144
FDA-CBER-2021-5683-1206322-1206324_27034_S1_M5_bnt162-01-S-dm.csv,ETHNIC,20,bnt162-01-S-dm,phase1,144
FDA-CBER-2021-5683-1206322-1206324_27034_S1_M5_bnt162-01-S-dm.csv,ARMCD,21,bnt162-01-S-dm,phase1,144
FDA-CBER-2021-5683-1206322-1206324_27034_S1_M5_bnt162-01-S-dm.csv,ARM,22,bnt162-01-S-dm,phase1,144
FDA-CBER-2021-5683-1206322-1206324_27034_S1_M5_bnt162-01-S-dm.csv,ACTARMCD,23,bnt162-01-S-dm,phase1,144
FDA-CBER-2021-5683-1206322-1206324_27034_S1_M5_bnt162-01-S-dm.csv,ACTARM,24,bnt162-01-S-dm,phase1,144
FDA-CBER-2021-5683-1206322-1206324_27034_S1_M5_bnt162-01-S-dm.csv,COUNTRY,25,bnt162-01-S-dm,phase1,144
FDA-CBER-2021-5683-1206325-1206339_27034_S1_M5_bnt162-01-S-ds.csv,STUDYID,1,bnt162-01-S-ds,phase1,616
FDA-CBER-2021-5683-1206325-1206339_27034_S1_M5_bnt162-01-S-ds.csv,DOMAIN,2,bnt162-01-S-ds,phase1,616
FDA-CBER-2021-5683-1206325-1206339_27034_S1_M5_bnt162-01-S-ds.csv,USUBJID,3,bnt162-01-S-ds,phase1,616
FDA-CBER-2021-5683-1206325-1206339_27034_S1_M5_bnt162-01-S-ds.csv,DSSEQ,4,bnt162-01-S-ds,phase1,616
FDA-CBER-2021-5683-1206325-1206339_27034_S1_M5_bnt162-01-S-ds.csv,DSTERM,5,bnt162-01-S-ds,phase1,616
FDA-CBER-2021-5683-1206325-1206339_27034_S1_M5_bnt162-01-S-ds.csv,DSDECOD,6,bnt162-01-S-ds,phase1,616
FDA-CBER-2021-5683-1206325-1206339_27034_S1_M5_bnt162-01-S-ds.csv,DSCAT,7,bnt162-01-S-ds,phase1,616
FDA-CBER-2021-5683-1206325-1206339_27034_S1_M5_bnt162-01-S-ds.csv,DSSCAT,8,bnt162-01-S-ds,phase1,616
FDA-CBER-2021-5683-1206325-1206339_27034_S1_M5_bnt162-01-S-ds.csv,EPOCH,9,bnt162-01-S-ds,phase1,616
FDA-CBER-2021-5683-1206325-1206339_27034_S1_M5_bnt162-01-S-ds.csv,DSSTDTC,10,bnt162-01-S-ds,phase1,616
FDA-CBER-2021-5683-1206325-1206339_27034_S1_M5_bnt162-01-S-ds.csv,DSSTDY,11,bnt162-01-S-ds,phase1,616
FDA-CBER-2021-5683-1206340-1206342_27034_S1_M5_bnt162-01-S-dv.csv,STUDYID,1,bnt162-01-S-dv,phase1,136
FDA-CBER-2021-5683-1206340-1206342_27034_S1_M5_bnt162-01-S-dv.csv,DOMAIN,2,bnt162-01-S-dv,phase1,136
FDA-CBER-2021-5683-1206340-1206342_27034_S1_M5_bnt162-01-S-dv.csv,USUBJID,3,bnt162-01-S-dv,phase1,136
FDA-CBER-2021-5683-1206340-1206342_27034_S1_M5_bnt162-01-S-dv.csv,DVSEQ,4,bnt162-01-S-dv,phase1,136
FDA-CBER-2021-5683-1206340-1206342_27034_S1_M5_bnt162-01-S-dv.csv,DVREFID,5,bnt162-01-S-dv,phase1,136
FDA-CBER-2021-5683-1206340-1206342_27034_S1_M5_bnt162-01-S-dv.csv,DVTERM,6,bnt162-01-S-dv,phase1,136
FDA-CBER-2021-5683-1206340-1206342_27034_S1_M5_bnt162-01-S-dv.csv,DVDECOD,7,bnt162-01-S-dv,phase1,136
FDA-CBER-2021-5683-1206340-1206342_27034_S1_M5_bnt162-01-S-dv.csv,EPOCH,8,bnt162-01-S-dv,phase1,136
FDA-CBER-2021-5683-1206340-1206342_27034_S1_M5_bnt162-01-S-dv.csv,DVSTDTC,9,bnt162-01-S-dv,phase1,136
FDA-CBER-2021-5683-1206340-1206342_27034_S1_M5_bnt162-01-S-dv.csv,DVSTDY,10,bnt162-01-S-dv,phase1,136
FDA-CBER-2021-5683-1206343-1206348_27034_S1_M5_bnt162-01-S-ec.csv,STUDYID,1,bnt162-01-S-ec,phase1,264
FDA-CBER-2021-5683-1206343-1206348_27034_S1_M5_bnt162-01-S-ec.csv,DOMAIN,2,bnt162-01-S-ec,phase1,264
FDA-CBER-2021-5683-1206343-1206348_27034_S1_M5_bnt162-01-S-ec.csv,USUBJID,3,bnt162-01-S-ec,phase1,264
FDA-CBER-2021-5683-1206343-1206348_27034_S1_M5_bnt162-01-S-ec.csv,ECSEQ,4,bnt162-01-S-ec,phase1,264
FDA-CBER-2021-5683-1206343-1206348_27034_S1_M5_bnt162-01-S-ec.csv,ECTRT,5,bnt162-01-S-ec,phase1,264
FDA-CBER-2021-5683-1206343-1206348_27034_S1_M5_bnt162-01-S-ec.csv,ECPRESP,6,bnt162-01-S-ec,phase1,264
FDA-CBER-2021-5683-1206343-1206348_27034_S1_M5_bnt162-01-S-ec.csv,ECOCCUR,7,bnt162-01-S-ec,phase1,264
FDA-CBER-2021-5683-1206343-1206348_27034_S1_M5_bnt162-01-S-ec.csv,ECDOSE,8,bnt162-01-S-ec,phase1,264
FDA-CBER-2021-5683-1206343-1206348_27034_S1_M5_bnt162-01-S-ec.csv,ECDOSU,9,bnt162-01-S-ec,phase1,264
FDA-CBER-2021-5683-1206343-1206348_27034_S1_M5_bnt162-01-S-ec.csv,ECDOSFRM,10,bnt162-01-S-ec,phase1,264
FDA-CBER-2021-5683-1206343-1206348_27034_S1_M5_bnt162-01-S-ec.csv,ECROUTE,11,bnt162-01-S-ec,phase1,264
FDA-CBER-2021-5683-1206343-1206348_27034_S1_M5_bnt162-01-S-ec.csv,ECLOC,12,bnt162-01-S-ec,phase1,264
FDA-CBER-2021-5683-1206343-1206348_27034_S1_M5_bnt162-01-S-ec.csv,ECLAT,13,bnt162-01-S-ec,phase1,264
FDA-CBER-2021-5683-1206343-1206348_27034_S1_M5_bnt162-01-S-ec.csv,ECDIR,14,bnt162-01-S-ec,phase1,264
FDA-CBER-2021-5683-1206343-1206348_27034_S1_M5_bnt162-01-S-ec.csv,VISITNUM,15,bnt162-01-S-ec,phase1,264
FDA-CBER-2021-5683-1206343-1206348_27034_S1_M5_bnt162-01-S-ec.csv,VISIT,16,bnt162-01-S-ec,phase1,264
FDA-CBER-2021-5683-1206343-1206348_27034_S1_M5_bnt162-01-S-ec.csv,EPOCH,17,bnt162-01-S-ec,phase1,264
FDA-CBER-2021-5683-1206343-1206348_27034_S1_M5_bnt162-01-S-ec.csv,ECSTDTC,18,bnt162-01-S-ec,phase1,264
FDA-CBER-2021-5683-1206343-1206348_27034_S1_M5_bnt162-01-S-ec.csv,ECENDTC,19,bnt162-01-S-ec,phase1,264
FDA-CBER-2021-5683-1206343-1206348_27034_S1_M5_bnt162-01-S-ec.csv,ECSTDY,20,bnt162-01-S-ec,phase1,264
FDA-CBER-2021-5683-1206343-1206348_27034_S1_M5_bnt162-01-S-ec.csv,ECENDY,21,bnt162-01-S-ec,phase1,264
FDA-CBER-2021-5683-1206349-1206363_27034_S1_M5_bnt162-01-S-eg.csv,STUDYID,1,bnt162-01-S-eg,phase1,629
FDA-CBER-2021-5683-1206349-1206363_27034_S1_M5_bnt162-01-S-eg.csv,DOMAIN,2,bnt162-01-S-eg,phase1,629
FDA-CBER-2021-5683-1206349-1206363_27034_S1_M5_bnt162-01-S-eg.csv,USUBJID,3,bnt162-01-S-eg,phase1,629
FDA-CBER-2021-5683-1206349-1206363_27034_S1_M5_bnt162-01-S-eg.csv,EGSEQ,4,bnt162-01-S-eg,phase1,629
FDA-CBER-2021-5683-1206349-1206363_27034_S1_M5_bnt162-01-S-eg.csv,EGTESTCD,5,bnt162-01-S-eg,phase1,629
FDA-CBER-2021-5683-1206349-1206363_27034_S1_M5_bnt162-01-S-eg.csv,EGTEST,6,bnt162-01-S-eg,phase1,629
FDA-CBER-2021-5683-1206349-1206363_27034_S1_M5_bnt162-01-S-eg.csv,EGCAT,7,bnt162-01-S-eg,phase1,629
FDA-CBER-2021-5683-1206349-1206363_27034_S1_M5_bnt162-01-S-eg.csv,EGPOS,8,bnt162-01-S-eg,phase1,629
FDA-CBER-2021-5683-1206349-1206363_27034_S1_M5_bnt162-01-S-eg.csv,EGORRES,9,bnt162-01-S-eg,phase1,629
FDA-CBER-2021-5683-1206349-1206363_27034_S1_M5_bnt162-01-S-eg.csv,EGORRESU,10,bnt162-01-S-eg,phase1,629
FDA-CBER-2021-5683-1206349-1206363_27034_S1_M5_bnt162-01-S-eg.csv,EGSTRESC,11,bnt162-01-S-eg,phase1,629
FDA-CBER-2021-5683-1206349-1206363_27034_S1_M5_bnt162-01-S-eg.csv,EGSTRESN,12,bnt162-01-S-eg,phase1,629
FDA-CBER-2021-5683-1206349-1206363_27034_S1_M5_bnt162-01-S-eg.csv,EGSTRESU,13,bnt162-01-S-eg,phase1,629
FDA-CBER-2021-5683-1206349-1206363_27034_S1_M5_bnt162-01-S-eg.csv,EGSTAT,14,bnt162-01-S-eg,phase1,629
FDA-CBER-2021-5683-1206349-1206363_27034_S1_M5_bnt162-01-S-eg.csv,EGREASND,15,bnt162-01-S-eg,phase1,629
FDA-CBER-2021-5683-1206349-1206363_27034_S1_M5_bnt162-01-S-eg.csv,EGMETHOD,16,bnt162-01-S-eg,phase1,629
FDA-CBER-2021-5683-1206349-1206363_27034_S1_M5_bnt162-01-S-eg.csv,EGBLFL,17,bnt162-01-S-eg,phase1,629
FDA-CBER-2021-5683-1206349-1206363_27034_S1_M5_bnt162-01-S-eg.csv,EGEVAL,18,bnt162-01-S-eg,phase1,629
FDA-CBER-2021-5683-1206349-1206363_27034_S1_M5_bnt162-01-S-eg.csv,VISITNUM,19,bnt162-01-S-eg,phase1,629
FDA-CBER-2021-5683-1206349-1206363_27034_S1_M5_bnt162-01-S-eg.csv,VISIT,20,bnt162-01-S-eg,phase1,629
FDA-CBER-2021-5683-1206349-1206363_27034_S1_M5_bnt162-01-S-eg.csv,EPOCH,21,bnt162-01-S-eg,phase1,629
FDA-CBER-2021-5683-1206349-1206363_27034_S1_M5_bnt162-01-S-eg.csv,EGDTC,22,bnt162-01-S-eg,phase1,629
FDA-CBER-2021-5683-1206349-1206363_27034_S1_M5_bnt162-01-S-eg.csv,EGDY,23,bnt162-01-S-eg,phase1,629
FDA-CBER-2021-5683-1206364-1206369_27034_S1_M5_bnt162-01-S-ex.csv,STUDYID,1,bnt162-01-S-ex,phase1,250
FDA-CBER-2021-5683-1206364-1206369_27034_S1_M5_bnt162-01-S-ex.csv,DOMAIN,2,bnt162-01-S-ex,phase1,250
FDA-CBER-2021-5683-1206364-1206369_27034_S1_M5_bnt162-01-S-ex.csv,USUBJID,3,bnt162-01-S-ex,phase1,250
FDA-CBER-2021-5683-1206364-1206369_27034_S1_M5_bnt162-01-S-ex.csv,EXSEQ,4,bnt162-01-S-ex,phase1,250
FDA-CBER-2021-5683-1206364-1206369_27034_S1_M5_bnt162-01-S-ex.csv,EXTRT,5,bnt162-01-S-ex,phase1,250
FDA-CBER-2021-5683-1206364-1206369_27034_S1_M5_bnt162-01-S-ex.csv,EXDOSE,6,bnt162-01-S-ex,phase1,250
FDA-CBER-2021-5683-1206364-1206369_27034_S1_M5_bnt162-01-S-ex.csv,EXDOSU,7,bnt162-01-S-ex,phase1,250
FDA-CBER-2021-5683-1206364-1206369_27034_S1_M5_bnt162-01-S-ex.csv,EXDOSFRM,8,bnt162-01-S-ex,phase1,250
FDA-CBER-2021-5683-1206364-1206369_27034_S1_M5_bnt162-01-S-ex.csv,EXROUTE,9,bnt162-01-S-ex,phase1,250
FDA-CBER-2021-5683-1206364-1206369_27034_S1_M5_bnt162-01-S-ex.csv,EXLOC,10,bnt162-01-S-ex,phase1,250
FDA-CBER-2021-5683-1206364-1206369_27034_S1_M5_bnt162-01-S-ex.csv,EXLAT,11,bnt162-01-S-ex,phase1,250
FDA-CBER-2021-5683-1206364-1206369_27034_S1_M5_bnt162-01-S-ex.csv,EXDIR,12,bnt162-01-S-ex,phase1,250
FDA-CBER-2021-5683-1206364-1206369_27034_S1_M5_bnt162-01-S-ex.csv,VISITNUM,13,bnt162-01-S-ex,phase1,250
FDA-CBER-2021-5683-1206364-1206369_27034_S1_M5_bnt162-01-S-ex.csv,VISIT,14,bnt162-01-S-ex,phase1,250
FDA-CBER-2021-5683-1206364-1206369_27034_S1_M5_bnt162-01-S-ex.csv,EPOCH,15,bnt162-01-S-ex,phase1,250
FDA-CBER-2021-5683-1206364-1206369_27034_S1_M5_bnt162-01-S-ex.csv,EXSTDTC,16,bnt162-01-S-ex,phase1,250
FDA-CBER-2021-5683-1206364-1206369_27034_S1_M5_bnt162-01-S-ex.csv,EXENDTC,17,bnt162-01-S-ex,phase1,250
FDA-CBER-2021-5683-1206364-1206369_27034_S1_M5_bnt162-01-S-ex.csv,EXSTDY,18,bnt162-01-S-ex,phase1,250
FDA-CBER-2021-5683-1206364-1206369_27034_S1_M5_bnt162-01-S-ex.csv,EXENDY,19,bnt162-01-S-ex,phase1,250
FDA-CBER-2021-5683-1206370-1208269_27034_S1_M5_bnt162-01-S-face.csv,STUDYID,1,bnt162-01-S-face,phase1,76038
FDA-CBER-2021-5683-1206370-1208269_27034_S1_M5_bnt162-01-S-face.csv,DOMAIN,2,bnt162-01-S-face,phase1,76038
FDA-CBER-2021-5683-1206370-1208269_27034_S1_M5_bnt162-01-S-face.csv,USUBJID,3,bnt162-01-S-face,phase1,76038
FDA-CBER-2021-5683-1206370-1208269_27034_S1_M5_bnt162-01-S-face.csv,FASEQ,4,bnt162-01-S-face,phase1,76038
FDA-CBER-2021-5683-1206370-1208269_27034_S1_M5_bnt162-01-S-face.csv,FAGRPID,5,bnt162-01-S-face,phase1,76038
FDA-CBER-2021-5683-1206370-1208269_27034_S1_M5_bnt162-01-S-face.csv,FALNKID,6,bnt162-01-S-face,phase1,76038
FDA-CBER-2021-5683-1206370-1208269_27034_S1_M5_bnt162-01-S-face.csv,FALNKGRP,7,bnt162-01-S-face,phase1,76038
FDA-CBER-2021-5683-1206370-1208269_27034_S1_M5_bnt162-01-S-face.csv,FATESTCD,8,bnt162-01-S-face,phase1,76038
FDA-CBER-2021-5683-1206370-1208269_27034_S1_M5_bnt162-01-S-face.csv,FATEST,9,bnt162-01-S-face,phase1,76038
FDA-CBER-2021-5683-1206370-1208269_27034_S1_M5_bnt162-01-S-face.csv,FAOBJ,10,bnt162-01-S-face,phase1,76038
FDA-CBER-2021-5683-1206370-1208269_27034_S1_M5_bnt162-01-S-face.csv,FACAT,11,bnt162-01-S-face,phase1,76038
FDA-CBER-2021-5683-1206370-1208269_27034_S1_M5_bnt162-01-S-face.csv,FASCAT,12,bnt162-01-S-face,phase1,76038
FDA-CBER-2021-5683-1206370-1208269_27034_S1_M5_bnt162-01-S-face.csv,FAORRES,13,bnt162-01-S-face,phase1,76038
FDA-CBER-2021-5683-1206370-1208269_27034_S1_M5_bnt162-01-S-face.csv,FASTRESC,14,bnt162-01-S-face,phase1,76038
FDA-CBER-2021-5683-1206370-1208269_27034_S1_M5_bnt162-01-S-face.csv,FASTAT,15,bnt162-01-S-face,phase1,76038
FDA-CBER-2021-5683-1206370-1208269_27034_S1_M5_bnt162-01-S-face.csv,FAREASND,16,bnt162-01-S-face,phase1,76038
FDA-CBER-2021-5683-1206370-1208269_27034_S1_M5_bnt162-01-S-face.csv,FAEVAL,17,bnt162-01-S-face,phase1,76038
FDA-CBER-2021-5683-1206370-1208269_27034_S1_M5_bnt162-01-S-face.csv,VISITNUM,18,bnt162-01-S-face,phase1,76038
FDA-CBER-2021-5683-1206370-1208269_27034_S1_M5_bnt162-01-S-face.csv,VISIT,19,bnt162-01-S-face,phase1,76038
FDA-CBER-2021-5683-1206370-1208269_27034_S1_M5_bnt162-01-S-face.csv,EPOCH,20,bnt162-01-S-face,phase1,76038
FDA-CBER-2021-5683-1206370-1208269_27034_S1_M5_bnt162-01-S-face.csv,FADTC,21,bnt162-01-S-face,phase1,76038
FDA-CBER-2021-5683-1206370-1208269_27034_S1_M5_bnt162-01-S-face.csv,FADY,22,bnt162-01-S-face,phase1,76038
FDA-CBER-2021-5683-1206370-1208269_27034_S1_M5_bnt162-01-S-face.csv,FATPT,23,bnt162-01-S-face,phase1,76038
FDA-CBER-2021-5683-1206370-1208269_27034_S1_M5_bnt162-01-S-face.csv,FATPTNUM,24,bnt162-01-S-face,phase1,76038
FDA-CBER-2021-5683-1206370-1208269_27034_S1_M5_bnt162-01-S-face.csv,FATPTREF,25,bnt162-01-S-face,phase1,76038
FDA-CBER-2021-5683-1206370-1208269_27034_S1_M5_bnt162-01-S-face.csv,FARFTDTC,26,bnt162-01-S-face,phase1,76038
FDA-CBER-2021-5683-1206370-1208269_27034_S1_M5_bnt162-01-S-face.csv,FAEVLINT,27,bnt162-01-S-face,phase1,76038
FDA-CBER-2021-5683-1206370-1208269_27034_S1_M5_bnt162-01-S-face.csv,FAEVINTX,28,bnt162-01-S-face,phase1,76038
FDA-CBER-2021-5683-1208270-1208320_27034_S1_M5_bnt162-01-S-is.csv,STUDYID,1,bnt162-01-S-is,phase1,2070
FDA-CBER-2021-5683-1208270-1208320_27034_S1_M5_bnt162-01-S-is.csv,DOMAIN,2,bnt162-01-S-is,phase1,2070
FDA-CBER-2021-5683-1208270-1208320_27034_S1_M5_bnt162-01-S-is.csv,USUBJID,3,bnt162-01-S-is,phase1,2070
FDA-CBER-2021-5683-1208270-1208320_27034_S1_M5_bnt162-01-S-is.csv,ISSEQ,4,bnt162-01-S-is,phase1,2070
FDA-CBER-2021-5683-1208270-1208320_27034_S1_M5_bnt162-01-S-is.csv,ISREFID,5,bnt162-01-S-is,phase1,2070
FDA-CBER-2021-5683-1208270-1208320_27034_S1_M5_bnt162-01-S-is.csv,ISTESTCD,6,bnt162-01-S-is,phase1,2070
FDA-CBER-2021-5683-1208270-1208320_27034_S1_M5_bnt162-01-S-is.csv,ISTEST,7,bnt162-01-S-is,phase1,2070
FDA-CBER-2021-5683-1208270-1208320_27034_S1_M5_bnt162-01-S-is.csv,ISCAT,8,bnt162-01-S-is,phase1,2070
FDA-CBER-2021-5683-1208270-1208320_27034_S1_M5_bnt162-01-S-is.csv,ISORRES,9,bnt162-01-S-is,phase1,2070
FDA-CBER-2021-5683-1208270-1208320_27034_S1_M5_bnt162-01-S-is.csv,ISORRESU,10,bnt162-01-S-is,phase1,2070
FDA-CBER-2021-5683-1208270-1208320_27034_S1_M5_bnt162-01-S-is.csv,ISSTRESC,11,bnt162-01-S-is,phase1,2070
FDA-CBER-2021-5683-1208270-1208320_27034_S1_M5_bnt162-01-S-is.csv,ISSTRESN,12,bnt162-01-S-is,phase1,2070
FDA-CBER-2021-5683-1208270-1208320_27034_S1_M5_bnt162-01-S-is.csv,ISSTRESU,13,bnt162-01-S-is,phase1,2070
FDA-CBER-2021-5683-1208270-1208320_27034_S1_M5_bnt162-01-S-is.csv,ISSTAT,14,bnt162-01-S-is,phase1,2070
FDA-CBER-2021-5683-1208270-1208320_27034_S1_M5_bnt162-01-S-is.csv,ISREASND,15,bnt162-01-S-is,phase1,2070
FDA-CBER-2021-5683-1208270-1208320_27034_S1_M5_bnt162-01-S-is.csv,ISSPEC,16,bnt162-01-S-is,phase1,2070
FDA-CBER-2021-5683-1208270-1208320_27034_S1_M5_bnt162-01-S-is.csv,ISBLFL,17,bnt162-01-S-is,phase1,2070
FDA-CBER-2021-5683-1208270-1208320_27034_S1_M5_bnt162-01-S-is.csv,ISLLOQ,18,bnt162-01-S-is,phase1,2070
FDA-CBER-2021-5683-1208270-1208320_27034_S1_M5_bnt162-01-S-is.csv,VISITNUM,19,bnt162-01-S-is,phase1,2070
FDA-CBER-2021-5683-1208270-1208320_27034_S1_M5_bnt162-01-S-is.csv,VISIT,20,bnt162-01-S-is,phase1,2070
FDA-CBER-2021-5683-1208270-1208320_27034_S1_M5_bnt162-01-S-is.csv,EPOCH,21,bnt162-01-S-is,phase1,2070
FDA-CBER-2021-5683-1208270-1208320_27034_S1_M5_bnt162-01-S-is.csv,ISDTC,22,bnt162-01-S-is,phase1,2070
FDA-CBER-2021-5683-1208270-1208320_27034_S1_M5_bnt162-01-S-is.csv,ISDY,23,bnt162-01-S-is,phase1,2070
FDA-CBER-2021-5683-1208321-1209251_27034_S1_M5_bnt162-01-S-lb.csv,STUDYID,1,bnt162-01-S-lb,phase1,37279
FDA-CBER-2021-5683-1208321-1209251_27034_S1_M5_bnt162-01-S-lb.csv,DOMAIN,2,bnt162-01-S-lb,phase1,37279
FDA-CBER-2021-5683-1208321-1209251_27034_S1_M5_bnt162-01-S-lb.csv,USUBJID,3,bnt162-01-S-lb,phase1,37279
FDA-CBER-2021-5683-1208321-1209251_27034_S1_M5_bnt162-01-S-lb.csv,LBSEQ,4,bnt162-01-S-lb,phase1,37279
FDA-CBER-2021-5683-1208321-1209251_27034_S1_M5_bnt162-01-S-lb.csv,LBREFID,5,bnt162-01-S-lb,phase1,37279
FDA-CBER-2021-5683-1208321-1209251_27034_S1_M5_bnt162-01-S-lb.csv,LBTESTCD,6,bnt162-01-S-lb,phase1,37279
FDA-CBER-2021-5683-1208321-1209251_27034_S1_M5_bnt162-01-S-lb.csv,LBTEST,7,bnt162-01-S-lb,phase1,37279
FDA-CBER-2021-5683-1208321-1209251_27034_S1_M5_bnt162-01-S-lb.csv,LBCAT,8,bnt162-01-S-lb,phase1,37279
FDA-CBER-2021-5683-1208321-1209251_27034_S1_M5_bnt162-01-S-lb.csv,LBSCAT,9,bnt162-01-S-lb,phase1,37279
FDA-CBER-2021-5683-1208321-1209251_27034_S1_M5_bnt162-01-S-lb.csv,LBORRES,10,bnt162-01-S-lb,phase1,37279
FDA-CBER-2021-5683-1208321-1209251_27034_S1_M5_bnt162-01-S-lb.csv,LBORRESU,11,bnt162-01-S-lb,phase1,37279
FDA-CBER-2021-5683-1208321-1209251_27034_S1_M5_bnt162-01-S-lb.csv,LBORNRLO,12,bnt162-01-S-lb,phase1,37279
FDA-CBER-2021-5683-1208321-1209251_27034_S1_M5_bnt162-01-S-lb.csv,LBORNRHI,13,bnt162-01-S-lb,phase1,37279
FDA-CBER-2021-5683-1208321-1209251_27034_S1_M5_bnt162-01-S-lb.csv,LBSTRESC,14,bnt162-01-S-lb,phase1,37279
FDA-CBER-2021-5683-1208321-1209251_27034_S1_M5_bnt162-01-S-lb.csv,LBSTRESN,15,bnt162-01-S-lb,phase1,37279
FDA-CBER-2021-5683-1208321-1209251_27034_S1_M5_bnt162-01-S-lb.csv,LBSTRESU,16,bnt162-01-S-lb,phase1,37279
FDA-CBER-2021-5683-1208321-1209251_27034_S1_M5_bnt162-01-S-lb.csv,LBSTNRLO,17,bnt162-01-S-lb,phase1,37279
FDA-CBER-2021-5683-1208321-1209251_27034_S1_M5_bnt162-01-S-lb.csv,LBSTNRHI,18,bnt162-01-S-lb,phase1,37279
FDA-CBER-2021-5683-1208321-1209251_27034_S1_M5_bnt162-01-S-lb.csv,LBSTNRC,19,bnt162-01-S-lb,phase1,37279
FDA-CBER-2021-5683-1208321-1209251_27034_S1_M5_bnt162-01-S-lb.csv,LBNRIND,20,bnt162-01-S-lb,phase1,37279
FDA-CBER-2021-5683-1208321-1209251_27034_S1_M5_bnt162-01-S-lb.csv,LBSTAT,21,bnt162-01-S-lb,phase1,37279
FDA-CBER-2021-5683-1208321-1209251_27034_S1_M5_bnt162-01-S-lb.csv,LBREASND,22,bnt162-01-S-lb,phase1,37279
FDA-CBER-2021-5683-1208321-1209251_27034_S1_M5_bnt162-01-S-lb.csv,LBNAM,23,bnt162-01-S-lb,phase1,37279
FDA-CBER-2021-5683-1208321-1209251_27034_S1_M5_bnt162-01-S-lb.csv,LBLOINC,24,bnt162-01-S-lb,phase1,37279
FDA-CBER-2021-5683-1208321-1209251_27034_S1_M5_bnt162-01-S-lb.csv,LBSPEC,25,bnt162-01-S-lb,phase1,37279
FDA-CBER-2021-5683-1208321-1209251_27034_S1_M5_bnt162-01-S-lb.csv,LBMETHOD,26,bnt162-01-S-lb,phase1,37279
FDA-CBER-2021-5683-1208321-1209251_27034_S1_M5_bnt162-01-S-lb.csv,LBBLFL,27,bnt162-01-S-lb,phase1,37279
FDA-CBER-2021-5683-1208321-1209251_27034_S1_M5_bnt162-01-S-lb.csv,LBFAST,28,bnt162-01-S-lb,phase1,37279
FDA-CBER-2021-5683-1208321-1209251_27034_S1_M5_bnt162-01-S-lb.csv,VISITNUM,29,bnt162-01-S-lb,phase1,37279
FDA-CBER-2021-5683-1208321-1209251_27034_S1_M5_bnt162-01-S-lb.csv,VISIT,30,bnt162-01-S-lb,phase1,37279
FDA-CBER-2021-5683-1208321-1209251_27034_S1_M5_bnt162-01-S-lb.csv,EPOCH,31,bnt162-01-S-lb,phase1,37279
FDA-CBER-2021-5683-1208321-1209251_27034_S1_M5_bnt162-01-S-lb.csv,LBDTC,32,bnt162-01-S-lb,phase1,37279
FDA-CBER-2021-5683-1208321-1209251_27034_S1_M5_bnt162-01-S-lb.csv,LBDY,33,bnt162-01-S-lb,phase1,37279
FDA-CBER-2021-5683-1209252-1209275_27034_S1_M5_bnt162-01-S-mb.csv,STUDYID,1,bnt162-01-S-mb,phase1,971
FDA-CBER-2021-5683-1209252-1209275_27034_S1_M5_bnt162-01-S-mb.csv,DOMAIN,2,bnt162-01-S-mb,phase1,971
FDA-CBER-2021-5683-1209252-1209275_27034_S1_M5_bnt162-01-S-mb.csv,USUBJID,3,bnt162-01-S-mb,phase1,971
FDA-CBER-2021-5683-1209252-1209275_27034_S1_M5_bnt162-01-S-mb.csv,MBSEQ,4,bnt162-01-S-mb,phase1,971
FDA-CBER-2021-5683-1209252-1209275_27034_S1_M5_bnt162-01-S-mb.csv,MBGRPID,5,bnt162-01-S-mb,phase1,971
FDA-CBER-2021-5683-1209252-1209275_27034_S1_M5_bnt162-01-S-mb.csv,MBTESTCD,6,bnt162-01-S-mb,phase1,971
FDA-CBER-2021-5683-1209252-1209275_27034_S1_M5_bnt162-01-S-mb.csv,MBTEST,7,bnt162-01-S-mb,phase1,971
FDA-CBER-2021-5683-1209252-1209275_27034_S1_M5_bnt162-01-S-mb.csv,MBTSTDTL,8,bnt162-01-S-mb,phase1,971
FDA-CBER-2021-5683-1209252-1209275_27034_S1_M5_bnt162-01-S-mb.csv,MBCAT,9,bnt162-01-S-mb,phase1,971
FDA-CBER-2021-5683-1209252-1209275_27034_S1_M5_bnt162-01-S-mb.csv,MBORRES,10,bnt162-01-S-mb,phase1,971
FDA-CBER-2021-5683-1209252-1209275_27034_S1_M5_bnt162-01-S-mb.csv,MBORNRHI,11,bnt162-01-S-mb,phase1,971
FDA-CBER-2021-5683-1209252-1209275_27034_S1_M5_bnt162-01-S-mb.csv,MBSTRESC,12,bnt162-01-S-mb,phase1,971
FDA-CBER-2021-5683-1209252-1209275_27034_S1_M5_bnt162-01-S-mb.csv,MBSTNRHI,13,bnt162-01-S-mb,phase1,971
FDA-CBER-2021-5683-1209252-1209275_27034_S1_M5_bnt162-01-S-mb.csv,MBSTNRC,14,bnt162-01-S-mb,phase1,971
FDA-CBER-2021-5683-1209252-1209275_27034_S1_M5_bnt162-01-S-mb.csv,MBNRIND,15,bnt162-01-S-mb,phase1,971
FDA-CBER-2021-5683-1209252-1209275_27034_S1_M5_bnt162-01-S-mb.csv,MBRESCAT,16,bnt162-01-S-mb,phase1,971
FDA-CBER-2021-5683-1209252-1209275_27034_S1_M5_bnt162-01-S-mb.csv,MBSTAT,17,bnt162-01-S-mb,phase1,971
FDA-CBER-2021-5683-1209252-1209275_27034_S1_M5_bnt162-01-S-mb.csv,MBREASND,18,bnt162-01-S-mb,phase1,971
FDA-CBER-2021-5683-1209252-1209275_27034_S1_M5_bnt162-01-S-mb.csv,MBNAM,19,bnt162-01-S-mb,phase1,971
FDA-CBER-2021-5683-1209252-1209275_27034_S1_M5_bnt162-01-S-mb.csv,MBSPEC,20,bnt162-01-S-mb,phase1,971
FDA-CBER-2021-5683-1209252-1209275_27034_S1_M5_bnt162-01-S-mb.csv,MBLOC,21,bnt162-01-S-mb,phase1,971
FDA-CBER-2021-5683-1209252-1209275_27034_S1_M5_bnt162-01-S-mb.csv,MBMETHOD,22,bnt162-01-S-mb,phase1,971
FDA-CBER-2021-5683-1209252-1209275_27034_S1_M5_bnt162-01-S-mb.csv,MBBLFL,23,bnt162-01-S-mb,phase1,971
FDA-CBER-2021-5683-1209252-1209275_27034_S1_M5_bnt162-01-S-mb.csv,VISITNUM,24,bnt162-01-S-mb,phase1,971
FDA-CBER-2021-5683-1209252-1209275_27034_S1_M5_bnt162-01-S-mb.csv,VISIT,25,bnt162-01-S-mb,phase1,971
FDA-CBER-2021-5683-1209252-1209275_27034_S1_M5_bnt162-01-S-mb.csv,EPOCH,26,bnt162-01-S-mb,phase1,971
FDA-CBER-2021-5683-1209252-1209275_27034_S1_M5_bnt162-01-S-mb.csv,MBDTC,27,bnt162-01-S-mb,phase1,971
FDA-CBER-2021-5683-1209252-1209275_27034_S1_M5_bnt162-01-S-mb.csv,MBDY,28,bnt162-01-S-mb,phase1,971
FDA-CBER-2021-5683-1209276_27034_S1_M5_bnt162-01-S-mh.csv,STUDYID,1,bnt162-01-S-mh,phase1,47
FDA-CBER-2021-5683-1209276_27034_S1_M5_bnt162-01-S-mh.csv,DOMAIN,2,bnt162-01-S-mh,phase1,47
FDA-CBER-2021-5683-1209276_27034_S1_M5_bnt162-01-S-mh.csv,USUBJID,3,bnt162-01-S-mh,phase1,47
FDA-CBER-2021-5683-1209276_27034_S1_M5_bnt162-01-S-mh.csv,MHSEQ,4,bnt162-01-S-mh,phase1,47
FDA-CBER-2021-5683-1209276_27034_S1_M5_bnt162-01-S-mh.csv,MHTERM,5,bnt162-01-S-mh,phase1,47
FDA-CBER-2021-5683-1209276_27034_S1_M5_bnt162-01-S-mh.csv,MHMODIFY,6,bnt162-01-S-mh,phase1,47
FDA-CBER-2021-5683-1209276_27034_S1_M5_bnt162-01-S-mh.csv,MHLLT,7,bnt162-01-S-mh,phase1,47
FDA-CBER-2021-5683-1209276_27034_S1_M5_bnt162-01-S-mh.csv,MHLLTCD,8,bnt162-01-S-mh,phase1,47
FDA-CBER-2021-5683-1209276_27034_S1_M5_bnt162-01-S-mh.csv,MHDECOD,9,bnt162-01-S-mh,phase1,47
FDA-CBER-2021-5683-1209276_27034_S1_M5_bnt162-01-S-mh.csv,MHPTCD,10,bnt162-01-S-mh,phase1,47
FDA-CBER-2021-5683-1209276_27034_S1_M5_bnt162-01-S-mh.csv,MHHLT,11,bnt162-01-S-mh,phase1,47
FDA-CBER-2021-5683-1209276_27034_S1_M5_bnt162-01-S-mh.csv,MHHLTCD,12,bnt162-01-S-mh,phase1,47
FDA-CBER-2021-5683-1209276_27034_S1_M5_bnt162-01-S-mh.csv,MHHLGT,13,bnt162-01-S-mh,phase1,47
FDA-CBER-2021-5683-1209276_27034_S1_M5_bnt162-01-S-mh.csv,MHHLGTCD,14,bnt162-01-S-mh,phase1,47
FDA-CBER-2021-5683-1209276_27034_S1_M5_bnt162-01-S-mh.csv,MHBODSYS,15,bnt162-01-S-mh,phase1,47
FDA-CBER-2021-5683-1209276_27034_S1_M5_bnt162-01-S-mh.csv,MHBDSYCD,16,bnt162-01-S-mh,phase1,47
FDA-CBER-2021-5683-1209276_27034_S1_M5_bnt162-01-S-mh.csv,MHSOC,17,bnt162-01-S-mh,phase1,47
FDA-CBER-2021-5683-1209276_27034_S1_M5_bnt162-01-S-mh.csv,MHSOCCD,18,bnt162-01-S-mh,phase1,47
FDA-CBER-2021-5683-1209276_27034_S1_M5_bnt162-01-S-mh.csv,MHSTDTC,19,bnt162-01-S-mh,phase1,47
FDA-CBER-2021-5683-1209276_27034_S1_M5_bnt162-01-S-mh.csv,MHENDTC,20,bnt162-01-S-mh,phase1,47
FDA-CBER-2021-5683-1209276_27034_S1_M5_bnt162-01-S-mh.csv,MHENRTPT,21,bnt162-01-S-mh,phase1,47
FDA-CBER-2021-5683-1209276_27034_S1_M5_bnt162-01-S-mh.csv,MHENTPT,22,bnt162-01-S-mh,phase1,47
FDA-CBER-2021-5683-1209277-1209349_27034_S1_M5_bnt162-01-S-pe.csv,STUDYID,1,bnt162-01-S-pe,phase1,2947
FDA-CBER-2021-5683-1209277-1209349_27034_S1_M5_bnt162-01-S-pe.csv,DOMAIN,2,bnt162-01-S-pe,phase1,2947
FDA-CBER-2021-5683-1209277-1209349_27034_S1_M5_bnt162-01-S-pe.csv,USUBJID,3,bnt162-01-S-pe,phase1,2947
FDA-CBER-2021-5683-1209277-1209349_27034_S1_M5_bnt162-01-S-pe.csv,PESEQ,4,bnt162-01-S-pe,phase1,2947
FDA-CBER-2021-5683-1209277-1209349_27034_S1_M5_bnt162-01-S-pe.csv,PESPID,5,bnt162-01-S-pe,phase1,2947
FDA-CBER-2021-5683-1209277-1209349_27034_S1_M5_bnt162-01-S-pe.csv,PETESTCD,6,bnt162-01-S-pe,phase1,2947
FDA-CBER-2021-5683-1209277-1209349_27034_S1_M5_bnt162-01-S-pe.csv,PETEST,7,bnt162-01-S-pe,phase1,2947
FDA-CBER-2021-5683-1209277-1209349_27034_S1_M5_bnt162-01-S-pe.csv,PECAT,8,bnt162-01-S-pe,phase1,2947
FDA-CBER-2021-5683-1209277-1209349_27034_S1_M5_bnt162-01-S-pe.csv,PEORRES,9,bnt162-01-S-pe,phase1,2947
FDA-CBER-2021-5683-1209277-1209349_27034_S1_M5_bnt162-01-S-pe.csv,PESTRESC,10,bnt162-01-S-pe,phase1,2947
FDA-CBER-2021-5683-1209277-1209349_27034_S1_M5_bnt162-01-S-pe.csv,PESTAT,11,bnt162-01-S-pe,phase1,2947
FDA-CBER-2021-5683-1209277-1209349_27034_S1_M5_bnt162-01-S-pe.csv,PEREASND,12,bnt162-01-S-pe,phase1,2947
FDA-CBER-2021-5683-1209277-1209349_27034_S1_M5_bnt162-01-S-pe.csv,VISITNUM,13,bnt162-01-S-pe,phase1,2947
FDA-CBER-2021-5683-1209277-1209349_27034_S1_M5_bnt162-01-S-pe.csv,VISIT,14,bnt162-01-S-pe,phase1,2947
FDA-CBER-2021-5683-1209277-1209349_27034_S1_M5_bnt162-01-S-pe.csv,EPOCH,15,bnt162-01-S-pe,phase1,2947
FDA-CBER-2021-5683-1209277-1209349_27034_S1_M5_bnt162-01-S-pe.csv,PEDTC,16,bnt162-01-S-pe,phase1,2947
FDA-CBER-2021-5683-1209277-1209349_27034_S1_M5_bnt162-01-S-pe.csv,PEDY,17,bnt162-01-S-pe,phase1,2947
FDA-CBER-2021-5683-1209350_27034_S1_M5_bnt162-01-S-relrec.csv,STUDYID,1,bnt162-01-S-relrec,phase1,4
FDA-CBER-2021-5683-1209350_27034_S1_M5_bnt162-01-S-relrec.csv,RDOMAIN,2,bnt162-01-S-relrec,phase1,4
FDA-CBER-2021-5683-1209350_27034_S1_M5_bnt162-01-S-relrec.csv,USUBJID,3,bnt162-01-S-relrec,phase1,4
FDA-CBER-2021-5683-1209350_27034_S1_M5_bnt162-01-S-relrec.csv,IDVAR,4,bnt162-01-S-relrec,phase1,4
FDA-CBER-2021-5683-1209350_27034_S1_M5_bnt162-01-S-relrec.csv,IDVARVAL,5,bnt162-01-S-relrec,phase1,4
FDA-CBER-2021-5683-1209350_27034_S1_M5_bnt162-01-S-relrec.csv,RELTYPE,6,bnt162-01-S-relrec,phase1,4
FDA-CBER-2021-5683-1209350_27034_S1_M5_bnt162-01-S-relrec.csv,RELID,7,bnt162-01-S-relrec,phase1,4
FDA-CBER-2021-5683-1209351-1209352_27034_S1_M5_bnt162-01-S-rp.csv,STUDYID,1,bnt162-01-S-rp,phase1,115
FDA-CBER-2021-5683-1209351-1209352_27034_S1_M5_bnt162-01-S-rp.csv,DOMAIN,2,bnt162-01-S-rp,phase1,115
FDA-CBER-2021-5683-1209351-1209352_27034_S1_M5_bnt162-01-S-rp.csv,USUBJID,3,bnt162-01-S-rp,phase1,115
FDA-CBER-2021-5683-1209351-1209352_27034_S1_M5_bnt162-01-S-rp.csv,RPSEQ,4,bnt162-01-S-rp,phase1,115
FDA-CBER-2021-5683-1209351-1209352_27034_S1_M5_bnt162-01-S-rp.csv,RPTESTCD,5,bnt162-01-S-rp,phase1,115
FDA-CBER-2021-5683-1209351-1209352_27034_S1_M5_bnt162-01-S-rp.csv,RPTEST,6,bnt162-01-S-rp,phase1,115
FDA-CBER-2021-5683-1209351-1209352_27034_S1_M5_bnt162-01-S-rp.csv,RPORRES,7,bnt162-01-S-rp,phase1,115
FDA-CBER-2021-5683-1209351-1209352_27034_S1_M5_bnt162-01-S-rp.csv,RPORRESU,8,bnt162-01-S-rp,phase1,115
FDA-CBER-2021-5683-1209351-1209352_27034_S1_M5_bnt162-01-S-rp.csv,RPSTRESC,9,bnt162-01-S-rp,phase1,115
FDA-CBER-2021-5683-1209351-1209352_27034_S1_M5_bnt162-01-S-rp.csv,RPSTRESN,10,bnt162-01-S-rp,phase1,115
FDA-CBER-2021-5683-1209351-1209352_27034_S1_M5_bnt162-01-S-rp.csv,RPSTRESU,11,bnt162-01-S-rp,phase1,115
FDA-CBER-2021-5683-1209351-1209352_27034_S1_M5_bnt162-01-S-rp.csv,VISITNUM,12,bnt162-01-S-rp,phase1,115
FDA-CBER-2021-5683-1209351-1209352_27034_S1_M5_bnt162-01-S-rp.csv,VISIT,13,bnt162-01-S-rp,phase1,115
FDA-CBER-2021-5683-1209351-1209352_27034_S1_M5_bnt162-01-S-rp.csv,EPOCH,14,bnt162-01-S-rp,phase1,115
FDA-CBER-2021-5683-1209351-1209352_27034_S1_M5_bnt162-01-S-rp.csv,RPDTC,15,bnt162-01-S-rp,phase1,115
FDA-CBER-2021-5683-1209351-1209352_27034_S1_M5_bnt162-01-S-rp.csv,RPDY,16,bnt162-01-S-rp,phase1,115
FDA-CBER-2021-5683-1209353-1209367_27034_S1_M5_bnt162-01-S-se.csv,STUDYID,1,bnt162-01-S-se,phase1,620
FDA-CBER-2021-5683-1209353-1209367_27034_S1_M5_bnt162-01-S-se.csv,DOMAIN,2,bnt162-01-S-se,phase1,620
FDA-CBER-2021-5683-1209353-1209367_27034_S1_M5_bnt162-01-S-se.csv,USUBJID,3,bnt162-01-S-se,phase1,620
FDA-CBER-2021-5683-1209353-1209367_27034_S1_M5_bnt162-01-S-se.csv,SESEQ,4,bnt162-01-S-se,phase1,620
FDA-CBER-2021-5683-1209353-1209367_27034_S1_M5_bnt162-01-S-se.csv,ETCD,5,bnt162-01-S-se,phase1,620
FDA-CBER-2021-5683-1209353-1209367_27034_S1_M5_bnt162-01-S-se.csv,ELEMENT,6,bnt162-01-S-se,phase1,620
FDA-CBER-2021-5683-1209353-1209367_27034_S1_M5_bnt162-01-S-se.csv,TAETORD,7,bnt162-01-S-se,phase1,620
FDA-CBER-2021-5683-1209353-1209367_27034_S1_M5_bnt162-01-S-se.csv,EPOCH,8,bnt162-01-S-se,phase1,620
FDA-CBER-2021-5683-1209353-1209367_27034_S1_M5_bnt162-01-S-se.csv,SESTDTC,9,bnt162-01-S-se,phase1,620
FDA-CBER-2021-5683-1209353-1209367_27034_S1_M5_bnt162-01-S-se.csv,SEENDTC,10,bnt162-01-S-se,phase1,620
FDA-CBER-2021-5683-1209353-1209367_27034_S1_M5_bnt162-01-S-se.csv,SESTDY,11,bnt162-01-S-se,phase1,620
FDA-CBER-2021-5683-1209353-1209367_27034_S1_M5_bnt162-01-S-se.csv,SEENDY,12,bnt162-01-S-se,phase1,620
FDA-CBER-2021-5683-1209368-1209404_27034_S1_M5_bnt162-01-S-suppae.csv,STUDYID,1,bnt162-01-S-suppae,phase1,1502
FDA-CBER-2021-5683-1209368-1209404_27034_S1_M5_bnt162-01-S-suppae.csv,RDOMAIN,2,bnt162-01-S-suppae,phase1,1502
FDA-CBER-2021-5683-1209368-1209404_27034_S1_M5_bnt162-01-S-suppae.csv,USUBJID,3,bnt162-01-S-suppae,phase1,1502
FDA-CBER-2021-5683-1209368-1209404_27034_S1_M5_bnt162-01-S-suppae.csv,IDVAR,4,bnt162-01-S-suppae,phase1,1502
FDA-CBER-2021-5683-1209368-1209404_27034_S1_M5_bnt162-01-S-suppae.csv,IDVARVAL,5,bnt162-01-S-suppae,phase1,1502
FDA-CBER-2021-5683-1209368-1209404_27034_S1_M5_bnt162-01-S-suppae.csv,QNAM,6,bnt162-01-S-suppae,phase1,1502
FDA-CBER-2021-5683-1209368-1209404_27034_S1_M5_bnt162-01-S-suppae.csv,QLABEL,7,bnt162-01-S-suppae,phase1,1502
FDA-CBER-2021-5683-1209368-1209404_27034_S1_M5_bnt162-01-S-suppae.csv,QVAL,8,bnt162-01-S-suppae,phase1,1502
FDA-CBER-2021-5683-1209368-1209404_27034_S1_M5_bnt162-01-S-suppae.csv,QORIG,9,bnt162-01-S-suppae,phase1,1502
FDA-CBER-2021-5683-1209368-1209404_27034_S1_M5_bnt162-01-S-suppae.csv,QEVAL,10,bnt162-01-S-suppae,phase1,1502
FDA-CBER-2021-5683-1209405-1209462_27034_S1_M5_bnt162-01-S-suppcm.csv,STUDYID,1,bnt162-01-S-suppcm,phase1,2321
FDA-CBER-2021-5683-1209405-1209462_27034_S1_M5_bnt162-01-S-suppcm.csv,RDOMAIN,2,bnt162-01-S-suppcm,phase1,2321
FDA-CBER-2021-5683-1209405-1209462_27034_S1_M5_bnt162-01-S-suppcm.csv,USUBJID,3,bnt162-01-S-suppcm,phase1,2321
FDA-CBER-2021-5683-1209405-1209462_27034_S1_M5_bnt162-01-S-suppcm.csv,IDVAR,4,bnt162-01-S-suppcm,phase1,2321
FDA-CBER-2021-5683-1209405-1209462_27034_S1_M5_bnt162-01-S-suppcm.csv,IDVARVAL,5,bnt162-01-S-suppcm,phase1,2321
FDA-CBER-2021-5683-1209405-1209462_27034_S1_M5_bnt162-01-S-suppcm.csv,QNAM,6,bnt162-01-S-suppcm,phase1,2321
FDA-CBER-2021-5683-1209405-1209462_27034_S1_M5_bnt162-01-S-suppcm.csv,QLABEL,7,bnt162-01-S-suppcm,phase1,2321
FDA-CBER-2021-5683-1209405-1209462_27034_S1_M5_bnt162-01-S-suppcm.csv,QVAL,8,bnt162-01-S-suppcm,phase1,2321
FDA-CBER-2021-5683-1209405-1209462_27034_S1_M5_bnt162-01-S-suppcm.csv,QORIG,9,bnt162-01-S-suppcm,phase1,2321
FDA-CBER-2021-5683-1209405-1209462_27034_S1_M5_bnt162-01-S-suppcm.csv,QEVAL,10,bnt162-01-S-suppcm,phase1,2321
FDA-CBER-2021-5683-1209463-1209465_27034_S1_M5_bnt162-01-S-suppdm.csv,STUDYID,1,bnt162-01-S-suppdm,phase1,144
FDA-CBER-2021-5683-1209463-1209465_27034_S1_M5_bnt162-01-S-suppdm.csv,RDOMAIN,2,bnt162-01-S-suppdm,phase1,144
FDA-CBER-2021-5683-1209463-1209465_27034_S1_M5_bnt162-01-S-suppdm.csv,USUBJID,3,bnt162-01-S-suppdm,phase1,144
FDA-CBER-2021-5683-1209463-1209465_27034_S1_M5_bnt162-01-S-suppdm.csv,IDVAR,4,bnt162-01-S-suppdm,phase1,144
FDA-CBER-2021-5683-1209463-1209465_27034_S1_M5_bnt162-01-S-suppdm.csv,IDVARVAL,5,bnt162-01-S-suppdm,phase1,144
FDA-CBER-2021-5683-1209463-1209465_27034_S1_M5_bnt162-01-S-suppdm.csv,QNAM,6,bnt162-01-S-suppdm,phase1,144
FDA-CBER-2021-5683-1209463-1209465_27034_S1_M5_bnt162-01-S-suppdm.csv,QLABEL,7,bnt162-01-S-suppdm,phase1,144
FDA-CBER-2021-5683-1209463-1209465_27034_S1_M5_bnt162-01-S-suppdm.csv,QVAL,8,bnt162-01-S-suppdm,phase1,144
FDA-CBER-2021-5683-1209463-1209465_27034_S1_M5_bnt162-01-S-suppdm.csv,QORIG,9,bnt162-01-S-suppdm,phase1,144
FDA-CBER-2021-5683-1209463-1209465_27034_S1_M5_bnt162-01-S-suppdm.csv,QEVAL,10,bnt162-01-S-suppdm,phase1,144
FDA-CBER-2021-5683-1209466-1209482_27034_S1_M5_bnt162-01-S-suppds.csv,STUDYID,1,bnt162-01-S-suppds,phase1,688
FDA-CBER-2021-5683-1209466-1209482_27034_S1_M5_bnt162-01-S-suppds.csv,RDOMAIN,2,bnt162-01-S-suppds,phase1,688
FDA-CBER-2021-5683-1209466-1209482_27034_S1_M5_bnt162-01-S-suppds.csv,USUBJID,3,bnt162-01-S-suppds,phase1,688
FDA-CBER-2021-5683-1209466-1209482_27034_S1_M5_bnt162-01-S-suppds.csv,IDVAR,4,bnt162-01-S-suppds,phase1,688
FDA-CBER-2021-5683-1209466-1209482_27034_S1_M5_bnt162-01-S-suppds.csv,IDVARVAL,5,bnt162-01-S-suppds,phase1,688
FDA-CBER-2021-5683-1209466-1209482_27034_S1_M5_bnt162-01-S-suppds.csv,QNAM,6,bnt162-01-S-suppds,phase1,688
FDA-CBER-2021-5683-1209466-1209482_27034_S1_M5_bnt162-01-S-suppds.csv,QLABEL,7,bnt162-01-S-suppds,phase1,688
FDA-CBER-2021-5683-1209466-1209482_27034_S1_M5_bnt162-01-S-suppds.csv,QVAL,8,bnt162-01-S-suppds,phase1,688
FDA-CBER-2021-5683-1209466-1209482_27034_S1_M5_bnt162-01-S-suppds.csv,QORIG,9,bnt162-01-S-suppds,phase1,688
FDA-CBER-2021-5683-1209466-1209482_27034_S1_M5_bnt162-01-S-suppds.csv,QEVAL,10,bnt162-01-S-suppds,phase1,688
FDA-CBER-2021-5683-1209483-1209485_27034_S1_M5_bnt162-01-S-suppdv.csv,STUDYID,1,bnt162-01-S-suppdv,phase1,136
FDA-CBER-2021-5683-1209483-1209485_27034_S1_M5_bnt162-01-S-suppdv.csv,RDOMAIN,2,bnt162-01-S-suppdv,phase1,136
FDA-CBER-2021-5683-1209483-1209485_27034_S1_M5_bnt162-01-S-suppdv.csv,USUBJID,3,bnt162-01-S-suppdv,phase1,136
FDA-CBER-2021-5683-1209483-1209485_27034_S1_M5_bnt162-01-S-suppdv.csv,IDVAR,4,bnt162-01-S-suppdv,phase1,136
FDA-CBER-2021-5683-1209483-1209485_27034_S1_M5_bnt162-01-S-suppdv.csv,IDVARVAL,5,bnt162-01-S-suppdv,phase1,136
FDA-CBER-2021-5683-1209483-1209485_27034_S1_M5_bnt162-01-S-suppdv.csv,QNAM,6,bnt162-01-S-suppdv,phase1,136
FDA-CBER-2021-5683-1209483-1209485_27034_S1_M5_bnt162-01-S-suppdv.csv,QLABEL,7,bnt162-01-S-suppdv,phase1,136
FDA-CBER-2021-5683-1209483-1209485_27034_S1_M5_bnt162-01-S-suppdv.csv,QVAL,8,bnt162-01-S-suppdv,phase1,136
FDA-CBER-2021-5683-1209483-1209485_27034_S1_M5_bnt162-01-S-suppdv.csv,QORIG,9,bnt162-01-S-suppdv,phase1,136
FDA-CBER-2021-5683-1209483-1209485_27034_S1_M5_bnt162-01-S-suppdv.csv,QEVAL,10,bnt162-01-S-suppdv,phase1,136
FDA-CBER-2021-5683-1209486-1209504_27034_S1_M5_bnt162-01-S-suppec.csv,STUDYID,1,bnt162-01-S-suppec,phase1,764
FDA-CBER-2021-5683-1209486-1209504_27034_S1_M5_bnt162-01-S-suppec.csv,RDOMAIN,2,bnt162-01-S-suppec,phase1,764
FDA-CBER-2021-5683-1209486-1209504_27034_S1_M5_bnt162-01-S-suppec.csv,USUBJID,3,bnt162-01-S-suppec,phase1,764
FDA-CBER-2021-5683-1209486-1209504_27034_S1_M5_bnt162-01-S-suppec.csv,IDVAR,4,bnt162-01-S-suppec,phase1,764
FDA-CBER-2021-5683-1209486-1209504_27034_S1_M5_bnt162-01-S-suppec.csv,IDVARVAL,5,bnt162-01-S-suppec,phase1,764
FDA-CBER-2021-5683-1209486-1209504_27034_S1_M5_bnt162-01-S-suppec.csv,QNAM,6,bnt162-01-S-suppec,phase1,764
FDA-CBER-2021-5683-1209486-1209504_27034_S1_M5_bnt162-01-S-suppec.csv,QLABEL,7,bnt162-01-S-suppec,phase1,764
FDA-CBER-2021-5683-1209486-1209504_27034_S1_M5_bnt162-01-S-suppec.csv,QVAL,8,bnt162-01-S-suppec,phase1,764
FDA-CBER-2021-5683-1209486-1209504_27034_S1_M5_bnt162-01-S-suppec.csv,QORIG,9,bnt162-01-S-suppec,phase1,764
FDA-CBER-2021-5683-1209486-1209504_27034_S1_M5_bnt162-01-S-suppec.csv,QEVAL,10,bnt162-01-S-suppec,phase1,764
FDA-CBER-2021-5683-1209505-1209506_27034_S1_M5_bnt162-01-S-suppeg.csv,STUDYID,1,bnt162-01-S-suppeg,phase1,98
FDA-CBER-2021-5683-1209505-1209506_27034_S1_M5_bnt162-01-S-suppeg.csv,RDOMAIN,2,bnt162-01-S-suppeg,phase1,98
FDA-CBER-2021-5683-1209505-1209506_27034_S1_M5_bnt162-01-S-suppeg.csv,USUBJID,3,bnt162-01-S-suppeg,phase1,98
FDA-CBER-2021-5683-1209505-1209506_27034_S1_M5_bnt162-01-S-suppeg.csv,IDVAR,4,bnt162-01-S-suppeg,phase1,98
FDA-CBER-2021-5683-1209505-1209506_27034_S1_M5_bnt162-01-S-suppeg.csv,IDVARVAL,5,bnt162-01-S-suppeg,phase1,98
FDA-CBER-2021-5683-1209505-1209506_27034_S1_M5_bnt162-01-S-suppeg.csv,QNAM,6,bnt162-01-S-suppeg,phase1,98
FDA-CBER-2021-5683-1209505-1209506_27034_S1_M5_bnt162-01-S-suppeg.csv,QLABEL,7,bnt162-01-S-suppeg,phase1,98
FDA-CBER-2021-5683-1209505-1209506_27034_S1_M5_bnt162-01-S-suppeg.csv,QVAL,8,bnt162-01-S-suppeg,phase1,98
FDA-CBER-2021-5683-1209505-1209506_27034_S1_M5_bnt162-01-S-suppeg.csv,QORIG,9,bnt162-01-S-suppeg,phase1,98
FDA-CBER-2021-5683-1209505-1209506_27034_S1_M5_bnt162-01-S-suppeg.csv,QEVAL,10,bnt162-01-S-suppeg,phase1,98
FDA-CBER-2021-5683-1209507-1209524_27034_S1_M5_bnt162-01-S-suppex.csv,STUDYID,1,bnt162-01-S-suppex,phase1,750
FDA-CBER-2021-5683-1209507-1209524_27034_S1_M5_bnt162-01-S-suppex.csv,RDOMAIN,2,bnt162-01-S-suppex,phase1,750
FDA-CBER-2021-5683-1209507-1209524_27034_S1_M5_bnt162-01-S-suppex.csv,USUBJID,3,bnt162-01-S-suppex,phase1,750
FDA-CBER-2021-5683-1209507-1209524_27034_S1_M5_bnt162-01-S-suppex.csv,IDVAR,4,bnt162-01-S-suppex,phase1,750
FDA-CBER-2021-5683-1209507-1209524_27034_S1_M5_bnt162-01-S-suppex.csv,IDVARVAL,5,bnt162-01-S-suppex,phase1,750
FDA-CBER-2021-5683-1209507-1209524_27034_S1_M5_bnt162-01-S-suppex.csv,QNAM,6,bnt162-01-S-suppex,phase1,750
FDA-CBER-2021-5683-1209507-1209524_27034_S1_M5_bnt162-01-S-suppex.csv,QLABEL,7,bnt162-01-S-suppex,phase1,750
FDA-CBER-2021-5683-1209507-1209524_27034_S1_M5_bnt162-01-S-suppex.csv,QVAL,8,bnt162-01-S-suppex,phase1,750
FDA-CBER-2021-5683-1209507-1209524_27034_S1_M5_bnt162-01-S-suppex.csv,QORIG,9,bnt162-01-S-suppex,phase1,750
FDA-CBER-2021-5683-1209507-1209524_27034_S1_M5_bnt162-01-S-suppex.csv,QEVAL,10,bnt162-01-S-suppex,phase1,750
FDA-CBER-2021-5683-1209525-1211424_27034_S1_M5_bnt162-01-S-suppface.csv,STUDYID,1,bnt162-01-S-suppface,phase1,76002
FDA-CBER-2021-5683-1209525-1211424_27034_S1_M5_bnt162-01-S-suppface.csv,RDOMAIN,2,bnt162-01-S-suppface,phase1,76002
FDA-CBER-2021-5683-1209525-1211424_27034_S1_M5_bnt162-01-S-suppface.csv,USUBJID,3,bnt162-01-S-suppface,phase1,76002
FDA-CBER-2021-5683-1209525-1211424_27034_S1_M5_bnt162-01-S-suppface.csv,IDVAR,4,bnt162-01-S-suppface,phase1,76002
FDA-CBER-2021-5683-1209525-1211424_27034_S1_M5_bnt162-01-S-suppface.csv,IDVARVAL,5,bnt162-01-S-suppface,phase1,76002
FDA-CBER-2021-5683-1209525-1211424_27034_S1_M5_bnt162-01-S-suppface.csv,QNAM,6,bnt162-01-S-suppface,phase1,76002
FDA-CBER-2021-5683-1209525-1211424_27034_S1_M5_bnt162-01-S-suppface.csv,QLABEL,7,bnt162-01-S-suppface,phase1,76002
FDA-CBER-2021-5683-1209525-1211424_27034_S1_M5_bnt162-01-S-suppface.csv,QVAL,8,bnt162-01-S-suppface,phase1,76002
FDA-CBER-2021-5683-1209525-1211424_27034_S1_M5_bnt162-01-S-suppface.csv,QORIG,9,bnt162-01-S-suppface,phase1,76002
FDA-CBER-2021-5683-1209525-1211424_27034_S1_M5_bnt162-01-S-suppface.csv,QEVAL,10,bnt162-01-S-suppface,phase1,76002
FDA-CBER-2021-5683-1211425-1211497_27034_S1_M5_bnt162-01-S-supplb.csv,STUDYID,1,bnt162-01-S-supplb,phase1,2955
FDA-CBER-2021-5683-1211425-1211497_27034_S1_M5_bnt162-01-S-supplb.csv,RDOMAIN,2,bnt162-01-S-supplb,phase1,2955
FDA-CBER-2021-5683-1211425-1211497_27034_S1_M5_bnt162-01-S-supplb.csv,USUBJID,3,bnt162-01-S-supplb,phase1,2955
FDA-CBER-2021-5683-1211425-1211497_27034_S1_M5_bnt162-01-S-supplb.csv,IDVAR,4,bnt162-01-S-supplb,phase1,2955
FDA-CBER-2021-5683-1211425-1211497_27034_S1_M5_bnt162-01-S-supplb.csv,IDVARVAL,5,bnt162-01-S-supplb,phase1,2955
FDA-CBER-2021-5683-1211425-1211497_27034_S1_M5_bnt162-01-S-supplb.csv,QNAM,6,bnt162-01-S-supplb,phase1,2955
FDA-CBER-2021-5683-1211425-1211497_27034_S1_M5_bnt162-01-S-supplb.csv,QLABEL,7,bnt162-01-S-supplb,phase1,2955
FDA-CBER-2021-5683-1211425-1211497_27034_S1_M5_bnt162-01-S-supplb.csv,QVAL,8,bnt162-01-S-supplb,phase1,2955
FDA-CBER-2021-5683-1211425-1211497_27034_S1_M5_bnt162-01-S-supplb.csv,QORIG,9,bnt162-01-S-supplb,phase1,2955
FDA-CBER-2021-5683-1211425-1211497_27034_S1_M5_bnt162-01-S-supplb.csv,QEVAL,10,bnt162-01-S-supplb,phase1,2955
FDA-CBER-2021-5683-1211498_27034_S1_M5_bnt162-01-S-supppe.csv,STUDYID,1,bnt162-01-S-supppe,phase1,34
FDA-CBER-2021-5683-1211498_27034_S1_M5_bnt162-01-S-supppe.csv,RDOMAIN,2,bnt162-01-S-supppe,phase1,34
FDA-CBER-2021-5683-1211498_27034_S1_M5_bnt162-01-S-supppe.csv,USUBJID,3,bnt162-01-S-supppe,phase1,34
FDA-CBER-2021-5683-1211498_27034_S1_M5_bnt162-01-S-supppe.csv,IDVAR,4,bnt162-01-S-supppe,phase1,34
FDA-CBER-2021-5683-1211498_27034_S1_M5_bnt162-01-S-supppe.csv,IDVARVAL,5,bnt162-01-S-supppe,phase1,34
FDA-CBER-2021-5683-1211498_27034_S1_M5_bnt162-01-S-supppe.csv,QNAM,6,bnt162-01-S-supppe,phase1,34
FDA-CBER-2021-5683-1211498_27034_S1_M5_bnt162-01-S-supppe.csv,QLABEL,7,bnt162-01-S-supppe,phase1,34
FDA-CBER-2021-5683-1211498_27034_S1_M5_bnt162-01-S-supppe.csv,QVAL,8,bnt162-01-S-supppe,phase1,34
FDA-CBER-2021-5683-1211498_27034_S1_M5_bnt162-01-S-supppe.csv,QORIG,9,bnt162-01-S-supppe,phase1,34
FDA-CBER-2021-5683-1211498_27034_S1_M5_bnt162-01-S-supppe.csv,QEVAL,10,bnt162-01-S-supppe,phase1,34
FDA-CBER-2021-5683-1211499_27034_S1_M5_bnt162-01-S-supprp.csv,STUDYID,1,bnt162-01-S-supprp,phase1,1
FDA-CBER-2021-5683-1211499_27034_S1_M5_bnt162-01-S-supprp.csv,RDOMAIN,2,bnt162-01-S-supprp,phase1,1
FDA-CBER-2021-5683-1211499_27034_S1_M5_bnt162-01-S-supprp.csv,USUBJID,3,bnt162-01-S-supprp,phase1,1
FDA-CBER-2021-5683-1211499_27034_S1_M5_bnt162-01-S-supprp.csv,IDVAR,4,bnt162-01-S-supprp,phase1,1
FDA-CBER-2021-5683-1211499_27034_S1_M5_bnt162-01-S-supprp.csv,IDVARVAL,5,bnt162-01-S-supprp,phase1,1
FDA-CBER-2021-5683-1211499_27034_S1_M5_bnt162-01-S-supprp.csv,QNAM,6,bnt162-01-S-supprp,phase1,1
FDA-CBER-2021-5683-1211499_27034_S1_M5_bnt162-01-S-supprp.csv,QLABEL,7,bnt162-01-S-supprp,phase1,1
FDA-CBER-2021-5683-1211499_27034_S1_M5_bnt162-01-S-supprp.csv,QVAL,8,bnt162-01-S-supprp,phase1,1
FDA-CBER-2021-5683-1211499_27034_S1_M5_bnt162-01-S-supprp.csv,QORIG,9,bnt162-01-S-supprp,phase1,1
FDA-CBER-2021-5683-1211499_27034_S1_M5_bnt162-01-S-supprp.csv,QEVAL,10,bnt162-01-S-supprp,phase1,1
FDA-CBER-2021-5683-1211500-1211786_27034_S1_M5_bnt162-01-S-suppvs.csv,STUDYID,1,bnt162-01-S-suppvs,phase1,11515
FDA-CBER-2021-5683-1211500-1211786_27034_S1_M5_bnt162-01-S-suppvs.csv,RDOMAIN,2,bnt162-01-S-suppvs,phase1,11515
FDA-CBER-2021-5683-1211500-1211786_27034_S1_M5_bnt162-01-S-suppvs.csv,USUBJID,3,bnt162-01-S-suppvs,phase1,11515
FDA-CBER-2021-5683-1211500-1211786_27034_S1_M5_bnt162-01-S-suppvs.csv,IDVAR,4,bnt162-01-S-suppvs,phase1,11515
FDA-CBER-2021-5683-1211500-1211786_27034_S1_M5_bnt162-01-S-suppvs.csv,IDVARVAL,5,bnt162-01-S-suppvs,phase1,11515
FDA-CBER-2021-5683-1211500-1211786_27034_S1_M5_bnt162-01-S-suppvs.csv,QNAM,6,bnt162-01-S-suppvs,phase1,11515
FDA-CBER-2021-5683-1211500-1211786_27034_S1_M5_bnt162-01-S-suppvs.csv,QLABEL,7,bnt162-01-S-suppvs,phase1,11515
FDA-CBER-2021-5683-1211500-1211786_27034_S1_M5_bnt162-01-S-suppvs.csv,QVAL,8,bnt162-01-S-suppvs,phase1,11515
FDA-CBER-2021-5683-1211500-1211786_27034_S1_M5_bnt162-01-S-suppvs.csv,QORIG,9,bnt162-01-S-suppvs,phase1,11515
FDA-CBER-2021-5683-1211500-1211786_27034_S1_M5_bnt162-01-S-suppvs.csv,QEVAL,10,bnt162-01-S-suppvs,phase1,11515
FDA-CBER-2021-5683-1211787_27034_S1_M5_bnt162-01-S-suppxa.csv,STUDYID,1,bnt162-01-S-suppxa,phase1,41
FDA-CBER-2021-5683-1211787_27034_S1_M5_bnt162-01-S-suppxa.csv,RDOMAIN,2,bnt162-01-S-suppxa,phase1,41
FDA-CBER-2021-5683-1211787_27034_S1_M5_bnt162-01-S-suppxa.csv,USUBJID,3,bnt162-01-S-suppxa,phase1,41
FDA-CBER-2021-5683-1211787_27034_S1_M5_bnt162-01-S-suppxa.csv,IDVAR,4,bnt162-01-S-suppxa,phase1,41
FDA-CBER-2021-5683-1211787_27034_S1_M5_bnt162-01-S-suppxa.csv,IDVARVAL,5,bnt162-01-S-suppxa,phase1,41
FDA-CBER-2021-5683-1211787_27034_S1_M5_bnt162-01-S-suppxa.csv,QNAM,6,bnt162-01-S-suppxa,phase1,41
FDA-CBER-2021-5683-1211787_27034_S1_M5_bnt162-01-S-suppxa.csv,QLABEL,7,bnt162-01-S-suppxa,phase1,41
FDA-CBER-2021-5683-1211787_27034_S1_M5_bnt162-01-S-suppxa.csv,QVAL,8,bnt162-01-S-suppxa,phase1,41
FDA-CBER-2021-5683-1211787_27034_S1_M5_bnt162-01-S-suppxa.csv,QORIG,9,bnt162-01-S-suppxa,phase1,41
FDA-CBER-2021-5683-1211787_27034_S1_M5_bnt162-01-S-suppxa.csv,QEVAL,10,bnt162-01-S-suppxa,phase1,41
FDA-CBER-2021-5683-1211788-1211817_27034_S1_M5_bnt162-01-S-sv.csv,STUDYID,1,bnt162-01-S-sv,phase1,1210
FDA-CBER-2021-5683-1211788-1211817_27034_S1_M5_bnt162-01-S-sv.csv,DOMAIN,2,bnt162-01-S-sv,phase1,1210
FDA-CBER-2021-5683-1211788-1211817_27034_S1_M5_bnt162-01-S-sv.csv,USUBJID,3,bnt162-01-S-sv,phase1,1210
FDA-CBER-2021-5683-1211788-1211817_27034_S1_M5_bnt162-01-S-sv.csv,VISITNUM,4,bnt162-01-S-sv,phase1,1210
FDA-CBER-2021-5683-1211788-1211817_27034_S1_M5_bnt162-01-S-sv.csv,VISIT,5,bnt162-01-S-sv,phase1,1210
FDA-CBER-2021-5683-1211788-1211817_27034_S1_M5_bnt162-01-S-sv.csv,EPOCH,6,bnt162-01-S-sv,phase1,1210
FDA-CBER-2021-5683-1211788-1211817_27034_S1_M5_bnt162-01-S-sv.csv,SVSTDTC,7,bnt162-01-S-sv,phase1,1210
FDA-CBER-2021-5683-1211788-1211817_27034_S1_M5_bnt162-01-S-sv.csv,SVENDTC,8,bnt162-01-S-sv,phase1,1210
FDA-CBER-2021-5683-1211788-1211817_27034_S1_M5_bnt162-01-S-sv.csv,SVSTDY,9,bnt162-01-S-sv,phase1,1210
FDA-CBER-2021-5683-1211788-1211817_27034_S1_M5_bnt162-01-S-sv.csv,SVENDY,10,bnt162-01-S-sv,phase1,1210
FDA-CBER-2021-5683-1211788-1211817_27034_S1_M5_bnt162-01-S-sv.csv,SVUPDES,11,bnt162-01-S-sv,phase1,1210
FDA-CBER-2021-5683-1211818_27034_S1_M5_bnt162-01-S-ta.csv,STUDYID,1,bnt162-01-S-ta,phase1,60
FDA-CBER-2021-5683-1211818_27034_S1_M5_bnt162-01-S-ta.csv,DOMAIN,2,bnt162-01-S-ta,phase1,60
FDA-CBER-2021-5683-1211818_27034_S1_M5_bnt162-01-S-ta.csv,ARMCD,3,bnt162-01-S-ta,phase1,60
FDA-CBER-2021-5683-1211818_27034_S1_M5_bnt162-01-S-ta.csv,ARM,4,bnt162-01-S-ta,phase1,60
FDA-CBER-2021-5683-1211818_27034_S1_M5_bnt162-01-S-ta.csv,TAETORD,5,bnt162-01-S-ta,phase1,60
FDA-CBER-2021-5683-1211818_27034_S1_M5_bnt162-01-S-ta.csv,ETCD,6,bnt162-01-S-ta,phase1,60
FDA-CBER-2021-5683-1211818_27034_S1_M5_bnt162-01-S-ta.csv,ELEMENT,7,bnt162-01-S-ta,phase1,60
FDA-CBER-2021-5683-1211818_27034_S1_M5_bnt162-01-S-ta.csv,TABRANCH,8,bnt162-01-S-ta,phase1,60
FDA-CBER-2021-5683-1211818_27034_S1_M5_bnt162-01-S-ta.csv,TATRANS,9,bnt162-01-S-ta,phase1,60
FDA-CBER-2021-5683-1211818_27034_S1_M5_bnt162-01-S-ta.csv,EPOCH,10,bnt162-01-S-ta,phase1,60
FDA-CBER-2021-5683-1211819_27034_S1_M5_bnt162-01-S-te.csv,STUDYID,1,bnt162-01-S-te,phase1,27
FDA-CBER-2021-5683-1211819_27034_S1_M5_bnt162-01-S-te.csv,DOMAIN,2,bnt162-01-S-te,phase1,27
FDA-CBER-2021-5683-1211819_27034_S1_M5_bnt162-01-S-te.csv,ETCD,3,bnt162-01-S-te,phase1,27
FDA-CBER-2021-5683-1211819_27034_S1_M5_bnt162-01-S-te.csv,ELEMENT,4,bnt162-01-S-te,phase1,27
FDA-CBER-2021-5683-1211819_27034_S1_M5_bnt162-01-S-te.csv,TESTRL,5,bnt162-01-S-te,phase1,27
FDA-CBER-2021-5683-1211819_27034_S1_M5_bnt162-01-S-te.csv,TEENRL,6,bnt162-01-S-te,phase1,27
FDA-CBER-2021-5683-1211819_27034_S1_M5_bnt162-01-S-te.csv,TEDUR,7,bnt162-01-S-te,phase1,27
FDA-CBER-2021-5683-1211820-1211827_27034_S1_M5_bnt162-01-S-ti.csv,STUDYID,1,bnt162-01-S-ti,phase1,325
FDA-CBER-2021-5683-1211820-1211827_27034_S1_M5_bnt162-01-S-ti.csv,DOMAIN,2,bnt162-01-S-ti,phase1,325
FDA-CBER-2021-5683-1211820-1211827_27034_S1_M5_bnt162-01-S-ti.csv,IETESTCD,3,bnt162-01-S-ti,phase1,325
FDA-CBER-2021-5683-1211820-1211827_27034_S1_M5_bnt162-01-S-ti.csv,IETEST,4,bnt162-01-S-ti,phase1,325
FDA-CBER-2021-5683-1211820-1211827_27034_S1_M5_bnt162-01-S-ti.csv,IECAT,5,bnt162-01-S-ti,phase1,325
FDA-CBER-2021-5683-1211820-1211827_27034_S1_M5_bnt162-01-S-ti.csv,TIVERS,6,bnt162-01-S-ti,phase1,325
FDA-CBER-2021-5683-1211828_27034_S1_M5_bnt162-01-S-ts.csv,STUDYID,1,bnt162-01-S-ts,phase1,71
FDA-CBER-2021-5683-1211828_27034_S1_M5_bnt162-01-S-ts.csv,DOMAIN,2,bnt162-01-S-ts,phase1,71
FDA-CBER-2021-5683-1211828_27034_S1_M5_bnt162-01-S-ts.csv,TSSEQ,3,bnt162-01-S-ts,phase1,71
FDA-CBER-2021-5683-1211828_27034_S1_M5_bnt162-01-S-ts.csv,TSGRPID,4,bnt162-01-S-ts,phase1,71
FDA-CBER-2021-5683-1211828_27034_S1_M5_bnt162-01-S-ts.csv,TSPARMCD,5,bnt162-01-S-ts,phase1,71
FDA-CBER-2021-5683-1211828_27034_S1_M5_bnt162-01-S-ts.csv,TSPARM,6,bnt162-01-S-ts,phase1,71
FDA-CBER-2021-5683-1211828_27034_S1_M5_bnt162-01-S-ts.csv,TSVAL,7,bnt162-01-S-ts,phase1,71
FDA-CBER-2021-5683-1211828_27034_S1_M5_bnt162-01-S-ts.csv,TSVAL1,8,bnt162-01-S-ts,phase1,71
FDA-CBER-2021-5683-1211828_27034_S1_M5_bnt162-01-S-ts.csv,TSVALNF,9,bnt162-01-S-ts,phase1,71
FDA-CBER-2021-5683-1211828_27034_S1_M5_bnt162-01-S-ts.csv,TSVALCD,10,bnt162-01-S-ts,phase1,71
FDA-CBER-2021-5683-1211828_27034_S1_M5_bnt162-01-S-ts.csv,TSVCDREF,11,bnt162-01-S-ts,phase1,71
FDA-CBER-2021-5683-1211828_27034_S1_M5_bnt162-01-S-ts.csv,TSVCDVER,12,bnt162-01-S-ts,phase1,71
FDA-CBER-2021-5683-1211829_27034_S1_M5_bnt162-01-S-tv.csv,STUDYID,1,bnt162-01-S-tv,phase1,12
FDA-CBER-2021-5683-1211829_27034_S1_M5_bnt162-01-S-tv.csv,DOMAIN,2,bnt162-01-S-tv,phase1,12
FDA-CBER-2021-5683-1211829_27034_S1_M5_bnt162-01-S-tv.csv,VISITNUM,3,bnt162-01-S-tv,phase1,12
FDA-CBER-2021-5683-1211829_27034_S1_M5_bnt162-01-S-tv.csv,VISIT,4,bnt162-01-S-tv,phase1,12
FDA-CBER-2021-5683-1211829_27034_S1_M5_bnt162-01-S-tv.csv,VISITDY,5,bnt162-01-S-tv,phase1,12
FDA-CBER-2021-5683-1211829_27034_S1_M5_bnt162-01-S-tv.csv,ARMCD,6,bnt162-01-S-tv,phase1,12
FDA-CBER-2021-5683-1211829_27034_S1_M5_bnt162-01-S-tv.csv,TVSTRL,7,bnt162-01-S-tv,phase1,12
FDA-CBER-2021-5683-1211829_27034_S1_M5_bnt162-01-S-tv.csv,TVENRL,8,bnt162-01-S-tv,phase1,12
FDA-CBER-2021-5683-1211830-1212111_27034_S1_M5_bnt162-01-S-vs.csv,STUDYID,1,bnt162-01-S-vs,phase1,11311
FDA-CBER-2021-5683-1211830-1212111_27034_S1_M5_bnt162-01-S-vs.csv,DOMAIN,2,bnt162-01-S-vs,phase1,11311
FDA-CBER-2021-5683-1211830-1212111_27034_S1_M5_bnt162-01-S-vs.csv,USUBJID,3,bnt162-01-S-vs,phase1,11311
FDA-CBER-2021-5683-1211830-1212111_27034_S1_M5_bnt162-01-S-vs.csv,VSSEQ,4,bnt162-01-S-vs,phase1,11311
FDA-CBER-2021-5683-1211830-1212111_27034_S1_M5_bnt162-01-S-vs.csv,VSLNKID,5,bnt162-01-S-vs,phase1,11311
FDA-CBER-2021-5683-1211830-1212111_27034_S1_M5_bnt162-01-S-vs.csv,VSLNKGRP,6,bnt162-01-S-vs,phase1,11311
FDA-CBER-2021-5683-1211830-1212111_27034_S1_M5_bnt162-01-S-vs.csv,VSTESTCD,7,bnt162-01-S-vs,phase1,11311
FDA-CBER-2021-5683-1211830-1212111_27034_S1_M5_bnt162-01-S-vs.csv,VSTEST,8,bnt162-01-S-vs,phase1,11311
FDA-CBER-2021-5683-1211830-1212111_27034_S1_M5_bnt162-01-S-vs.csv,VSCAT,9,bnt162-01-S-vs,phase1,11311
FDA-CBER-2021-5683-1211830-1212111_27034_S1_M5_bnt162-01-S-vs.csv,VSSCAT,10,bnt162-01-S-vs,phase1,11311
FDA-CBER-2021-5683-1211830-1212111_27034_S1_M5_bnt162-01-S-vs.csv,VSPOS,11,bnt162-01-S-vs,phase1,11311
FDA-CBER-2021-5683-1211830-1212111_27034_S1_M5_bnt162-01-S-vs.csv,VSORRES,12,bnt162-01-S-vs,phase1,11311
FDA-CBER-2021-5683-1211830-1212111_27034_S1_M5_bnt162-01-S-vs.csv,VSORRESU,13,bnt162-01-S-vs,phase1,11311
FDA-CBER-2021-5683-1211830-1212111_27034_S1_M5_bnt162-01-S-vs.csv,VSSTRESC,14,bnt162-01-S-vs,phase1,11311
FDA-CBER-2021-5683-1211830-1212111_27034_S1_M5_bnt162-01-S-vs.csv,VSSTRESN,15,bnt162-01-S-vs,phase1,11311
FDA-CBER-2021-5683-1211830-1212111_27034_S1_M5_bnt162-01-S-vs.csv,VSSTRESU,16,bnt162-01-S-vs,phase1,11311
FDA-CBER-2021-5683-1211830-1212111_27034_S1_M5_bnt162-01-S-vs.csv,VSSTAT,17,bnt162-01-S-vs,phase1,11311
FDA-CBER-2021-5683-1211830-1212111_27034_S1_M5_bnt162-01-S-vs.csv,VSREASND,18,bnt162-01-S-vs,phase1,11311
FDA-CBER-2021-5683-1211830-1212111_27034_S1_M5_bnt162-01-S-vs.csv,VSLOC,19,bnt162-01-S-vs,phase1,11311
FDA-CBER-2021-5683-1211830-1212111_27034_S1_M5_bnt162-01-S-vs.csv,VSLAT,20,bnt162-01-S-vs,phase1,11311
FDA-CBER-2021-5683-1211830-1212111_27034_S1_M5_bnt162-01-S-vs.csv,VSBLFL,21,bnt162-01-S-vs,phase1,11311
FDA-CBER-2021-5683-1211830-1212111_27034_S1_M5_bnt162-01-S-vs.csv,VISITNUM,22,bnt162-01-S-vs,phase1,11311
FDA-CBER-2021-5683-1211830-1212111_27034_S1_M5_bnt162-01-S-vs.csv,VISIT,23,bnt162-01-S-vs,phase1,11311
FDA-CBER-2021-5683-1211830-1212111_27034_S1_M5_bnt162-01-S-vs.csv,EPOCH,24,bnt162-01-S-vs,phase1,11311
FDA-CBER-2021-5683-1211830-1212111_27034_S1_M5_bnt162-01-S-vs.csv,VSDTC,25,bnt162-01-S-vs,phase1,11311
FDA-CBER-2021-5683-1211830-1212111_27034_S1_M5_bnt162-01-S-vs.csv,VSDY,26,bnt162-01-S-vs,phase1,11311
FDA-CBER-2021-5683-1211830-1212111_27034_S1_M5_bnt162-01-S-vs.csv,VSTPT,27,bnt162-01-S-vs,phase1,11311
FDA-CBER-2021-5683-1211830-1212111_27034_S1_M5_bnt162-01-S-vs.csv,VSTPTNUM,28,bnt162-01-S-vs,phase1,11311
FDA-CBER-2021-5683-1211830-1212111_27034_S1_M5_bnt162-01-S-vs.csv,VSTPTREF,29,bnt162-01-S-vs,phase1,11311
FDA-CBER-2021-5683-1211830-1212111_27034_S1_M5_bnt162-01-S-vs.csv,VSRFTDTC,30,bnt162-01-S-vs,phase1,11311
FDA-CBER-2021-5683-1212112-1212123_27034_S1_M5_bnt162-01-S-xa.csv,STUDYID,1,bnt162-01-S-xa,phase1,495
FDA-CBER-2021-5683-1212112-1212123_27034_S1_M5_bnt162-01-S-xa.csv,DOMAIN,2,bnt162-01-S-xa,phase1,495
FDA-CBER-2021-5683-1212112-1212123_27034_S1_M5_bnt162-01-S-xa.csv,USUBJID,3,bnt162-01-S-xa,phase1,495
FDA-CBER-2021-5683-1212112-1212123_27034_S1_M5_bnt162-01-S-xa.csv,XASEQ,4,bnt162-01-S-xa,phase1,495
FDA-CBER-2021-5683-1212112-1212123_27034_S1_M5_bnt162-01-S-xa.csv,XATESTCD,5,bnt162-01-S-xa,phase1,495
FDA-CBER-2021-5683-1212112-1212123_27034_S1_M5_bnt162-01-S-xa.csv,XATEST,6,bnt162-01-S-xa,phase1,495
FDA-CBER-2021-5683-1212112-1212123_27034_S1_M5_bnt162-01-S-xa.csv,XACAT,7,bnt162-01-S-xa,phase1,495
FDA-CBER-2021-5683-1212112-1212123_27034_S1_M5_bnt162-01-S-xa.csv,XAORRES,8,bnt162-01-S-xa,phase1,495
FDA-CBER-2021-5683-1212112-1212123_27034_S1_M5_bnt162-01-S-xa.csv,XASTRESC,9,bnt162-01-S-xa,phase1,495
FDA-CBER-2021-5683-1212112-1212123_27034_S1_M5_bnt162-01-S-xa.csv,XABLFL,10,bnt162-01-S-xa,phase1,495
FDA-CBER-2021-5683-1212112-1212123_27034_S1_M5_bnt162-01-S-xa.csv,VISITNUM,11,bnt162-01-S-xa,phase1,495
FDA-CBER-2021-5683-1212112-1212123_27034_S1_M5_bnt162-01-S-xa.csv,VISIT,12,bnt162-01-S-xa,phase1,495
FDA-CBER-2021-5683-1212112-1212123_27034_S1_M5_bnt162-01-S-xa.csv,EPOCH,13,bnt162-01-S-xa,phase1,495
FDA-CBER-2021-5683-1212112-1212123_27034_S1_M5_bnt162-01-S-xa.csv,XADTC,14,bnt162-01-S-xa,phase1,495
FDA-CBER-2021-5683-1212112-1212123_27034_S1_M5_bnt162-01-S-xa.csv,XADY,15,bnt162-01-S-xa,phase1,495
FDA-CBER-2021-5683-1212112-1212123_27034_S1_M5_bnt162-01-S-xa.csv,XATPT,16,bnt162-01-S-xa,phase1,495
FDA-CBER-2021-5683-1212112-1212123_27034_S1_M5_bnt162-01-S-xa.csv,XATPTNUM,17,bnt162-01-S-xa,phase1,495
FDA-CBER-2021-5683-1212112-1212123_27034_S1_M5_bnt162-01-S-xa.csv,XATPTREF,18,bnt162-01-S-xa,phase1,495
FDA-CBER-2021-5683-1212112-1212123_27034_S1_M5_bnt162-01-S-xa.csv,XARFTDTC,19,bnt162-01-S-xa,phase1,495
FDA-CBER-2021-5683-1213371-1226594_27034_S1_M5_c4591001-ia efficacy-A-adc19ef.csv,STUDYID,1,c4591001-ia efficacy-A-adc19ef,efficacy,528996
FDA-CBER-2021-5683-1213371-1226594_27034_S1_M5_c4591001-ia efficacy-A-adc19ef.csv,USUBJID,2,c4591001-ia efficacy-A-adc19ef,efficacy,528996
FDA-CBER-2021-5683-1213371-1226594_27034_S1_M5_c4591001-ia efficacy-A-adc19ef.csv,SITEID,3,c4591001-ia efficacy-A-adc19ef,efficacy,528996
FDA-CBER-2021-5683-1213371-1226594_27034_S1_M5_c4591001-ia efficacy-A-adc19ef.csv,SUBJID,4,c4591001-ia efficacy-A-adc19ef,efficacy,528996
FDA-CBER-2021-5683-1213371-1226594_27034_S1_M5_c4591001-ia efficacy-A-adc19ef.csv,BRTHDT,5,c4591001-ia efficacy-A-adc19ef,efficacy,528996
FDA-CBER-2021-5683-1213371-1226594_27034_S1_M5_c4591001-ia efficacy-A-adc19ef.csv,AGEGR1N,6,c4591001-ia efficacy-A-adc19ef,efficacy,528996
FDA-CBER-2021-5683-1213371-1226594_27034_S1_M5_c4591001-ia efficacy-A-adc19ef.csv,AGEGR1,7,c4591001-ia efficacy-A-adc19ef,efficacy,528996
FDA-CBER-2021-5683-1213371-1226594_27034_S1_M5_c4591001-ia efficacy-A-adc19ef.csv,SEX,8,c4591001-ia efficacy-A-adc19ef,efficacy,528996
FDA-CBER-2021-5683-1213371-1226594_27034_S1_M5_c4591001-ia efficacy-A-adc19ef.csv,RACE,9,c4591001-ia efficacy-A-adc19ef,efficacy,528996
FDA-CBER-2021-5683-1213371-1226594_27034_S1_M5_c4591001-ia efficacy-A-adc19ef.csv,ETHNIC,10,c4591001-ia efficacy-A-adc19ef,efficacy,528996
FDA-CBER-2021-5683-1213371-1226594_27034_S1_M5_c4591001-ia efficacy-A-adc19ef.csv,ARMCD,11,c4591001-ia efficacy-A-adc19ef,efficacy,528996
FDA-CBER-2021-5683-1213371-1226594_27034_S1_M5_c4591001-ia efficacy-A-adc19ef.csv,ARM,12,c4591001-ia efficacy-A-adc19ef,efficacy,528996
FDA-CBER-2021-5683-1213371-1226594_27034_S1_M5_c4591001-ia efficacy-A-adc19ef.csv,ACTARMCD,13,c4591001-ia efficacy-A-adc19ef,efficacy,528996
FDA-CBER-2021-5683-1213371-1226594_27034_S1_M5_c4591001-ia efficacy-A-adc19ef.csv,ACTARM,14,c4591001-ia efficacy-A-adc19ef,efficacy,528996
FDA-CBER-2021-5683-1213371-1226594_27034_S1_M5_c4591001-ia efficacy-A-adc19ef.csv,PARAMN,15,c4591001-ia efficacy-A-adc19ef,efficacy,528996
FDA-CBER-2021-5683-1213371-1226594_27034_S1_M5_c4591001-ia efficacy-A-adc19ef.csv,PARAMCD,16,c4591001-ia efficacy-A-adc19ef,efficacy,528996
FDA-CBER-2021-5683-1213371-1226594_27034_S1_M5_c4591001-ia efficacy-A-adc19ef.csv,PARAM,17,c4591001-ia efficacy-A-adc19ef,efficacy,528996
FDA-CBER-2021-5683-1213371-1226594_27034_S1_M5_c4591001-ia efficacy-A-adc19ef.csv,PARCAT1,18,c4591001-ia efficacy-A-adc19ef,efficacy,528996
FDA-CBER-2021-5683-1213371-1226594_27034_S1_M5_c4591001-ia efficacy-A-adc19ef.csv,AVAL,19,c4591001-ia efficacy-A-adc19ef,efficacy,528996
FDA-CBER-2021-5683-1213371-1226594_27034_S1_M5_c4591001-ia efficacy-A-adc19ef.csv,AVALC,20,c4591001-ia efficacy-A-adc19ef,efficacy,528996
FDA-CBER-2021-5683-1213371-1226594_27034_S1_M5_c4591001-ia efficacy-A-adc19ef.csv,VISITNUM,21,c4591001-ia efficacy-A-adc19ef,efficacy,528996
FDA-CBER-2021-5683-1213371-1226594_27034_S1_M5_c4591001-ia efficacy-A-adc19ef.csv,VISIT,22,c4591001-ia efficacy-A-adc19ef,efficacy,528996
FDA-CBER-2021-5683-1213371-1226594_27034_S1_M5_c4591001-ia efficacy-A-adc19ef.csv,AVISITN,23,c4591001-ia efficacy-A-adc19ef,efficacy,528996
FDA-CBER-2021-5683-1213371-1226594_27034_S1_M5_c4591001-ia efficacy-A-adc19ef.csv,AVISIT,24,c4591001-ia efficacy-A-adc19ef,efficacy,528996
FDA-CBER-2021-5683-1213371-1226594_27034_S1_M5_c4591001-ia efficacy-A-adc19ef.csv,ADT,25,c4591001-ia efficacy-A-adc19ef,efficacy,528996
FDA-CBER-2021-5683-1213371-1226594_27034_S1_M5_c4591001-ia efficacy-A-adc19ef.csv,ADY,26,c4591001-ia efficacy-A-adc19ef,efficacy,528996
FDA-CBER-2021-5683-1213371-1226594_27034_S1_M5_c4591001-ia efficacy-A-adc19ef.csv,ASTDT,27,c4591001-ia efficacy-A-adc19ef,efficacy,528996
FDA-CBER-2021-5683-1213371-1226594_27034_S1_M5_c4591001-ia efficacy-A-adc19ef.csv,ASTDY,28,c4591001-ia efficacy-A-adc19ef,efficacy,528996
FDA-CBER-2021-5683-1213371-1226594_27034_S1_M5_c4591001-ia efficacy-A-adc19ef.csv,AENDT,29,c4591001-ia efficacy-A-adc19ef,efficacy,528996
FDA-CBER-2021-5683-1213371-1226594_27034_S1_M5_c4591001-ia efficacy-A-adc19ef.csv,AENDY,30,c4591001-ia efficacy-A-adc19ef,efficacy,528996
FDA-CBER-2021-5683-1213371-1226594_27034_S1_M5_c4591001-ia efficacy-A-adc19ef.csv,DCODT,31,c4591001-ia efficacy-A-adc19ef,efficacy,528996
FDA-CBER-2021-5683-1213371-1226594_27034_S1_M5_c4591001-ia efficacy-A-adc19ef.csv,RANDDT,32,c4591001-ia efficacy-A-adc19ef,efficacy,528996
FDA-CBER-2021-5683-1213371-1226594_27034_S1_M5_c4591001-ia efficacy-A-adc19ef.csv,TRTSDT,33,c4591001-ia efficacy-A-adc19ef,efficacy,528996
FDA-CBER-2021-5683-1213371-1226594_27034_S1_M5_c4591001-ia efficacy-A-adc19ef.csv,TRTEDT,34,c4591001-ia efficacy-A-adc19ef,efficacy,528996
FDA-CBER-2021-5683-1213371-1226594_27034_S1_M5_c4591001-ia efficacy-A-adc19ef.csv,VAX101DT,35,c4591001-ia efficacy-A-adc19ef,efficacy,528996
FDA-CBER-2021-5683-1213371-1226594_27034_S1_M5_c4591001-ia efficacy-A-adc19ef.csv,VAX102DT,36,c4591001-ia efficacy-A-adc19ef,efficacy,528996
FDA-CBER-2021-5683-1213371-1226594_27034_S1_M5_c4591001-ia efficacy-A-adc19ef.csv,DVSTDT,37,c4591001-ia efficacy-A-adc19ef,efficacy,528996
FDA-CBER-2021-5683-1213371-1226594_27034_S1_M5_c4591001-ia efficacy-A-adc19ef.csv,DTHDT,38,c4591001-ia efficacy-A-adc19ef,efficacy,528996
FDA-CBER-2021-5683-1213371-1226594_27034_S1_M5_c4591001-ia efficacy-A-adc19ef.csv,EOTDCDT,39,c4591001-ia efficacy-A-adc19ef,efficacy,528996
FDA-CBER-2021-5683-1213371-1226594_27034_S1_M5_c4591001-ia efficacy-A-adc19ef.csv,EOSDCDT,40,c4591001-ia efficacy-A-adc19ef,efficacy,528996
FDA-CBER-2021-5683-1213371-1226594_27034_S1_M5_c4591001-ia efficacy-A-adc19ef.csv,COMPLDT,41,c4591001-ia efficacy-A-adc19ef,efficacy,528996
FDA-CBER-2021-5683-1213371-1226594_27034_S1_M5_c4591001-ia efficacy-A-adc19ef.csv,RANDFL,42,c4591001-ia efficacy-A-adc19ef,efficacy,528996
FDA-CBER-2021-5683-1213371-1226594_27034_S1_M5_c4591001-ia efficacy-A-adc19ef.csv,EVALEFFL,43,c4591001-ia efficacy-A-adc19ef,efficacy,528996
FDA-CBER-2021-5683-1213371-1226594_27034_S1_M5_c4591001-ia efficacy-A-adc19ef.csv,AAI1EFFL,44,c4591001-ia efficacy-A-adc19ef,efficacy,528996
FDA-CBER-2021-5683-1213371-1226594_27034_S1_M5_c4591001-ia efficacy-A-adc19ef.csv,AAI2EFFL,45,c4591001-ia efficacy-A-adc19ef,efficacy,528996
FDA-CBER-2021-5683-1213371-1226594_27034_S1_M5_c4591001-ia efficacy-A-adc19ef.csv,DTHFL,46,c4591001-ia efficacy-A-adc19ef,efficacy,528996
FDA-CBER-2021-5683-1213371-1226594_27034_S1_M5_c4591001-ia efficacy-A-adc19ef.csv,C19ILHFL,47,c4591001-ia efficacy-A-adc19ef,efficacy,528996
FDA-CBER-2021-5683-1213371-1226594_27034_S1_M5_c4591001-ia efficacy-A-adc19ef.csv,CNCRSLFL,48,c4591001-ia efficacy-A-adc19ef,efficacy,528996
FDA-CBER-2021-5683-1213371-1226594_27034_S1_M5_c4591001-ia efficacy-A-adc19ef.csv,VRBLNGFL,49,c4591001-ia efficacy-A-adc19ef,efficacy,528996
FDA-CBER-2021-5683-1213371-1226594_27034_S1_M5_c4591001-ia efficacy-A-adc19ef.csv,CRD1NGFL,50,c4591001-ia efficacy-A-adc19ef,efficacy,528996
FDA-CBER-2021-5683-1213371-1226594_27034_S1_M5_c4591001-ia efficacy-A-adc19ef.csv,CRD2NGFL,51,c4591001-ia efficacy-A-adc19ef,efficacy,528996
FDA-CBER-2021-5683-1213371-1226594_27034_S1_M5_c4591001-ia efficacy-A-adc19ef.csv,PDSYMFL,52,c4591001-ia efficacy-A-adc19ef,efficacy,528996
FDA-CBER-2021-5683-1213371-1226594_27034_S1_M5_c4591001-ia efficacy-A-adc19ef.csv,PDSDMFL,53,c4591001-ia efficacy-A-adc19ef,efficacy,528996
FDA-CBER-2021-5683-1213371-1226594_27034_S1_M5_c4591001-ia efficacy-A-adc19ef.csv,SEVSYMFL,54,c4591001-ia efficacy-A-adc19ef,efficacy,528996
FDA-CBER-2021-5683-1213371-1226594_27034_S1_M5_c4591001-ia efficacy-A-adc19ef.csv,ILD1FL,55,c4591001-ia efficacy-A-adc19ef,efficacy,528996
FDA-CBER-2021-5683-1213371-1226594_27034_S1_M5_c4591001-ia efficacy-A-adc19ef.csv,ILD27FL,56,c4591001-ia efficacy-A-adc19ef,efficacy,528996
FDA-CBER-2021-5683-1213371-1226594_27034_S1_M5_c4591001-ia efficacy-A-adc19ef.csv,FILOCRFL,57,c4591001-ia efficacy-A-adc19ef,efficacy,528996
FDA-CBER-2021-5683-1213371-1226594_27034_S1_M5_c4591001-ia efficacy-A-adc19ef.csv,PDRMUFL,58,c4591001-ia efficacy-A-adc19ef,efficacy,528996
FDA-CBER-2021-5683-1213371-1226594_27034_S1_M5_c4591001-ia efficacy-A-adc19ef.csv,PDP1FL,59,c4591001-ia efficacy-A-adc19ef,efficacy,528996
FDA-CBER-2021-5683-1213371-1226594_27034_S1_M5_c4591001-ia efficacy-A-adc19ef.csv,PDP27FL,60,c4591001-ia efficacy-A-adc19ef,efficacy,528996
FDA-CBER-2021-5683-1213371-1226594_27034_S1_M5_c4591001-ia efficacy-A-adc19ef.csv,NMPDOCFL,61,c4591001-ia efficacy-A-adc19ef,efficacy,528996
FDA-CBER-2021-5683-1226624-1227706_27034_S1_M5_c4591001-ia efficacy-A-adsl.csv,STUDYID,1,c4591001-ia efficacy-A-adsl,efficacy,43331
FDA-CBER-2021-5683-1226624-1227706_27034_S1_M5_c4591001-ia efficacy-A-adsl.csv,USUBJID,2,c4591001-ia efficacy-A-adsl,efficacy,43331
FDA-CBER-2021-5683-1226624-1227706_27034_S1_M5_c4591001-ia efficacy-A-adsl.csv,SUBJID,3,c4591001-ia efficacy-A-adsl,efficacy,43331
FDA-CBER-2021-5683-1226624-1227706_27034_S1_M5_c4591001-ia efficacy-A-adsl.csv,SITEID,4,c4591001-ia efficacy-A-adsl,efficacy,43331
FDA-CBER-2021-5683-1226624-1227706_27034_S1_M5_c4591001-ia efficacy-A-adsl.csv,AGE,5,c4591001-ia efficacy-A-adsl,efficacy,43331
FDA-CBER-2021-5683-1226624-1227706_27034_S1_M5_c4591001-ia efficacy-A-adsl.csv,AGEU,6,c4591001-ia efficacy-A-adsl,efficacy,43331
FDA-CBER-2021-5683-1226624-1227706_27034_S1_M5_c4591001-ia efficacy-A-adsl.csv,SEX,7,c4591001-ia efficacy-A-adsl,efficacy,43331
FDA-CBER-2021-5683-1226624-1227706_27034_S1_M5_c4591001-ia efficacy-A-adsl.csv,SEXN,8,c4591001-ia efficacy-A-adsl,efficacy,43331
FDA-CBER-2021-5683-1226624-1227706_27034_S1_M5_c4591001-ia efficacy-A-adsl.csv,RACE,9,c4591001-ia efficacy-A-adsl,efficacy,43331
FDA-CBER-2021-5683-1226624-1227706_27034_S1_M5_c4591001-ia efficacy-A-adsl.csv,RACEN,10,c4591001-ia efficacy-A-adsl,efficacy,43331
FDA-CBER-2021-5683-1226624-1227706_27034_S1_M5_c4591001-ia efficacy-A-adsl.csv,ETHNIC,11,c4591001-ia efficacy-A-adsl,efficacy,43331
FDA-CBER-2021-5683-1226624-1227706_27034_S1_M5_c4591001-ia efficacy-A-adsl.csv,ETHNICN,12,c4591001-ia efficacy-A-adsl,efficacy,43331
FDA-CBER-2021-5683-1226624-1227706_27034_S1_M5_c4591001-ia efficacy-A-adsl.csv,COUNTRY,13,c4591001-ia efficacy-A-adsl,efficacy,43331
FDA-CBER-2021-5683-1226624-1227706_27034_S1_M5_c4591001-ia efficacy-A-adsl.csv,SAFFL,14,c4591001-ia efficacy-A-adsl,efficacy,43331
FDA-CBER-2021-5683-1226624-1227706_27034_S1_M5_c4591001-ia efficacy-A-adsl.csv,RANDFL,15,c4591001-ia efficacy-A-adsl,efficacy,43331
FDA-CBER-2021-5683-1226624-1227706_27034_S1_M5_c4591001-ia efficacy-A-adsl.csv,ENRLFL,16,c4591001-ia efficacy-A-adsl,efficacy,43331
FDA-CBER-2021-5683-1226624-1227706_27034_S1_M5_c4591001-ia efficacy-A-adsl.csv,DTHFL,17,c4591001-ia efficacy-A-adsl,efficacy,43331
FDA-CBER-2021-5683-1226624-1227706_27034_S1_M5_c4591001-ia efficacy-A-adsl.csv,ARM,18,c4591001-ia efficacy-A-adsl,efficacy,43331
FDA-CBER-2021-5683-1226624-1227706_27034_S1_M5_c4591001-ia efficacy-A-adsl.csv,ARMCD,19,c4591001-ia efficacy-A-adsl,efficacy,43331
FDA-CBER-2021-5683-1226624-1227706_27034_S1_M5_c4591001-ia efficacy-A-adsl.csv,ACTARM,20,c4591001-ia efficacy-A-adsl,efficacy,43331
FDA-CBER-2021-5683-1226624-1227706_27034_S1_M5_c4591001-ia efficacy-A-adsl.csv,ACTARMCD,21,c4591001-ia efficacy-A-adsl,efficacy,43331
FDA-CBER-2021-5683-1226624-1227706_27034_S1_M5_c4591001-ia efficacy-A-adsl.csv,TRT01P,22,c4591001-ia efficacy-A-adsl,efficacy,43331
FDA-CBER-2021-5683-1226624-1227706_27034_S1_M5_c4591001-ia efficacy-A-adsl.csv,TRT01PN,23,c4591001-ia efficacy-A-adsl,efficacy,43331
FDA-CBER-2021-5683-1226624-1227706_27034_S1_M5_c4591001-ia efficacy-A-adsl.csv,TRT01A,24,c4591001-ia efficacy-A-adsl,efficacy,43331
FDA-CBER-2021-5683-1226624-1227706_27034_S1_M5_c4591001-ia efficacy-A-adsl.csv,TRT01AN,25,c4591001-ia efficacy-A-adsl,efficacy,43331
FDA-CBER-2021-5683-1226624-1227706_27034_S1_M5_c4591001-ia efficacy-A-adsl.csv,BRTHDT,26,c4591001-ia efficacy-A-adsl,efficacy,43331
FDA-CBER-2021-5683-1226624-1227706_27034_S1_M5_c4591001-ia efficacy-A-adsl.csv,BRTHDTF,27,c4591001-ia efficacy-A-adsl,efficacy,43331
FDA-CBER-2021-5683-1226624-1227706_27034_S1_M5_c4591001-ia efficacy-A-adsl.csv,DTHDTC,28,c4591001-ia efficacy-A-adsl,efficacy,43331
FDA-CBER-2021-5683-1226624-1227706_27034_S1_M5_c4591001-ia efficacy-A-adsl.csv,DTHDT,29,c4591001-ia efficacy-A-adsl,efficacy,43331
FDA-CBER-2021-5683-1226624-1227706_27034_S1_M5_c4591001-ia efficacy-A-adsl.csv,DTHDTF,30,c4591001-ia efficacy-A-adsl,efficacy,43331
FDA-CBER-2021-5683-1226624-1227706_27034_S1_M5_c4591001-ia efficacy-A-adsl.csv,RANDDT,31,c4591001-ia efficacy-A-adsl,efficacy,43331
FDA-CBER-2021-5683-1226624-1227706_27034_S1_M5_c4591001-ia efficacy-A-adsl.csv,RANDNO,32,c4591001-ia efficacy-A-adsl,efficacy,43331
FDA-CBER-2021-5683-1226624-1227706_27034_S1_M5_c4591001-ia efficacy-A-adsl.csv,COMPLDT,33,c4591001-ia efficacy-A-adsl,efficacy,43331
FDA-CBER-2021-5683-1226624-1227706_27034_S1_M5_c4591001-ia efficacy-A-adsl.csv,RFSTDT,34,c4591001-ia efficacy-A-adsl,efficacy,43331
FDA-CBER-2021-5683-1226624-1227706_27034_S1_M5_c4591001-ia efficacy-A-adsl.csv,RFSTTM,35,c4591001-ia efficacy-A-adsl,efficacy,43331
FDA-CBER-2021-5683-1226624-1227706_27034_S1_M5_c4591001-ia efficacy-A-adsl.csv,RFENDT,36,c4591001-ia efficacy-A-adsl,efficacy,43331
FDA-CBER-2021-5683-1226624-1227706_27034_S1_M5_c4591001-ia efficacy-A-adsl.csv,RFENTM,37,c4591001-ia efficacy-A-adsl,efficacy,43331
FDA-CBER-2021-5683-1226624-1227706_27034_S1_M5_c4591001-ia efficacy-A-adsl.csv,RFPENDT,38,c4591001-ia efficacy-A-adsl,efficacy,43331
FDA-CBER-2021-5683-1226624-1227706_27034_S1_M5_c4591001-ia efficacy-A-adsl.csv,RFICDT,39,c4591001-ia efficacy-A-adsl,efficacy,43331
FDA-CBER-2021-5683-1226624-1227706_27034_S1_M5_c4591001-ia efficacy-A-adsl.csv,TRTSDT,40,c4591001-ia efficacy-A-adsl,efficacy,43331
FDA-CBER-2021-5683-1226624-1227706_27034_S1_M5_c4591001-ia efficacy-A-adsl.csv,TRTSTM,41,c4591001-ia efficacy-A-adsl,efficacy,43331
FDA-CBER-2021-5683-1226624-1227706_27034_S1_M5_c4591001-ia efficacy-A-adsl.csv,TRTEDT,42,c4591001-ia efficacy-A-adsl,efficacy,43331
FDA-CBER-2021-5683-1226624-1227706_27034_S1_M5_c4591001-ia efficacy-A-adsl.csv,TRTETM,43,c4591001-ia efficacy-A-adsl,efficacy,43331
FDA-CBER-2021-5683-1226624-1227706_27034_S1_M5_c4591001-ia efficacy-A-adsl.csv,TR01SDT,44,c4591001-ia efficacy-A-adsl,efficacy,43331
FDA-CBER-2021-5683-1226624-1227706_27034_S1_M5_c4591001-ia efficacy-A-adsl.csv,TR01STM,45,c4591001-ia efficacy-A-adsl,efficacy,43331
FDA-CBER-2021-5683-1226624-1227706_27034_S1_M5_c4591001-ia efficacy-A-adsl.csv,TR01EDT,46,c4591001-ia efficacy-A-adsl,efficacy,43331
FDA-CBER-2021-5683-1226624-1227706_27034_S1_M5_c4591001-ia efficacy-A-adsl.csv,TR01ETM,47,c4591001-ia efficacy-A-adsl,efficacy,43331
FDA-CBER-2021-5683-1226624-1227706_27034_S1_M5_c4591001-ia efficacy-A-adsl.csv,TRTSDTM,48,c4591001-ia efficacy-A-adsl,efficacy,43331
FDA-CBER-2021-5683-1226624-1227706_27034_S1_M5_c4591001-ia efficacy-A-adsl.csv,TRTEDTM,49,c4591001-ia efficacy-A-adsl,efficacy,43331
FDA-CBER-2021-5683-1226624-1227706_27034_S1_M5_c4591001-ia efficacy-A-adsl.csv,TR01SDTM,50,c4591001-ia efficacy-A-adsl,efficacy,43331
FDA-CBER-2021-5683-1226624-1227706_27034_S1_M5_c4591001-ia efficacy-A-adsl.csv,TR01EDTM,51,c4591001-ia efficacy-A-adsl,efficacy,43331
FDA-CBER-2021-5683-1226624-1227706_27034_S1_M5_c4591001-ia efficacy-A-adsl.csv,VAX101DT,52,c4591001-ia efficacy-A-adsl,efficacy,43331
FDA-CBER-2021-5683-1226624-1227706_27034_S1_M5_c4591001-ia efficacy-A-adsl.csv,VAX102DT,53,c4591001-ia efficacy-A-adsl,efficacy,43331
FDA-CBER-2021-5683-1226624-1227706_27034_S1_M5_c4591001-ia efficacy-A-adsl.csv,VAX103DT,54,c4591001-ia efficacy-A-adsl,efficacy,43331
FDA-CBER-2021-5683-1226624-1227706_27034_S1_M5_c4591001-ia efficacy-A-adsl.csv,AGETR01,55,c4591001-ia efficacy-A-adsl,efficacy,43331
FDA-CBER-2021-5683-1226624-1227706_27034_S1_M5_c4591001-ia efficacy-A-adsl.csv,AGETRU01,56,c4591001-ia efficacy-A-adsl,efficacy,43331
FDA-CBER-2021-5683-1226624-1227706_27034_S1_M5_c4591001-ia efficacy-A-adsl.csv,AGEGR1,57,c4591001-ia efficacy-A-adsl,efficacy,43331
FDA-CBER-2021-5683-1226624-1227706_27034_S1_M5_c4591001-ia efficacy-A-adsl.csv,AGEGR1N,58,c4591001-ia efficacy-A-adsl,efficacy,43331
FDA-CBER-2021-5683-1226624-1227706_27034_S1_M5_c4591001-ia efficacy-A-adsl.csv,ARACE,59,c4591001-ia efficacy-A-adsl,efficacy,43331
FDA-CBER-2021-5683-1226624-1227706_27034_S1_M5_c4591001-ia efficacy-A-adsl.csv,ARACEN,60,c4591001-ia efficacy-A-adsl,efficacy,43331
FDA-CBER-2021-5683-1226624-1227706_27034_S1_M5_c4591001-ia efficacy-A-adsl.csv,RACEGR1,61,c4591001-ia efficacy-A-adsl,efficacy,43331
FDA-CBER-2021-5683-1226624-1227706_27034_S1_M5_c4591001-ia efficacy-A-adsl.csv,RACEGR1N,62,c4591001-ia efficacy-A-adsl,efficacy,43331
FDA-CBER-2021-5683-1226624-1227706_27034_S1_M5_c4591001-ia efficacy-A-adsl.csv,EOSDCDT,63,c4591001-ia efficacy-A-adsl,efficacy,43331
FDA-CBER-2021-5683-1226624-1227706_27034_S1_M5_c4591001-ia efficacy-A-adsl.csv,EOSDCRS,64,c4591001-ia efficacy-A-adsl,efficacy,43331
FDA-CBER-2021-5683-1226624-1227706_27034_S1_M5_c4591001-ia efficacy-A-adsl.csv,EOTDCDT,65,c4591001-ia efficacy-A-adsl,efficacy,43331
FDA-CBER-2021-5683-1226624-1227706_27034_S1_M5_c4591001-ia efficacy-A-adsl.csv,EOTDCRS,66,c4591001-ia efficacy-A-adsl,efficacy,43331
FDA-CBER-2021-5683-1226624-1227706_27034_S1_M5_c4591001-ia efficacy-A-adsl.csv,INVID,67,c4591001-ia efficacy-A-adsl,efficacy,43331
FDA-CBER-2021-5683-1226624-1227706_27034_S1_M5_c4591001-ia efficacy-A-adsl.csv,INVNAM,68,c4591001-ia efficacy-A-adsl,efficacy,43331
FDA-CBER-2021-5683-1226624-1227706_27034_S1_M5_c4591001-ia efficacy-A-adsl.csv,DOSALVL,69,c4591001-ia efficacy-A-adsl,efficacy,43331
FDA-CBER-2021-5683-1226624-1227706_27034_S1_M5_c4591001-ia efficacy-A-adsl.csv,DOSPLVL,70,c4591001-ia efficacy-A-adsl,efficacy,43331
FDA-CBER-2021-5683-1226624-1227706_27034_S1_M5_c4591001-ia efficacy-A-adsl.csv,DOSPLVLN,71,c4591001-ia efficacy-A-adsl,efficacy,43331
FDA-CBER-2021-5683-1226624-1227706_27034_S1_M5_c4591001-ia efficacy-A-adsl.csv,DOSALVLN,72,c4591001-ia efficacy-A-adsl,efficacy,43331
FDA-CBER-2021-5683-1226624-1227706_27034_S1_M5_c4591001-ia efficacy-A-adsl.csv,VAX101,73,c4591001-ia efficacy-A-adsl,efficacy,43331
FDA-CBER-2021-5683-1226624-1227706_27034_S1_M5_c4591001-ia efficacy-A-adsl.csv,VAX102,74,c4591001-ia efficacy-A-adsl,efficacy,43331
FDA-CBER-2021-5683-1226624-1227706_27034_S1_M5_c4591001-ia efficacy-A-adsl.csv,VAX103,75,c4591001-ia efficacy-A-adsl,efficacy,43331
FDA-CBER-2021-5683-1226624-1227706_27034_S1_M5_c4591001-ia efficacy-A-adsl.csv,SCREEN,76,c4591001-ia efficacy-A-adsl,efficacy,43331
FDA-CBER-2021-5683-1226624-1227706_27034_S1_M5_c4591001-ia efficacy-A-adsl.csv,COHORT,77,c4591001-ia efficacy-A-adsl,efficacy,43331
FDA-CBER-2021-5683-1226624-1227706_27034_S1_M5_c4591001-ia efficacy-A-adsl.csv,COHORTN,78,c4591001-ia efficacy-A-adsl,efficacy,43331
FDA-CBER-2021-5683-1226624-1227706_27034_S1_M5_c4591001-ia efficacy-A-adsl.csv,PHASEN,79,c4591001-ia efficacy-A-adsl,efficacy,43331
FDA-CBER-2021-5683-1226624-1227706_27034_S1_M5_c4591001-ia efficacy-A-adsl.csv,PHASE,80,c4591001-ia efficacy-A-adsl,efficacy,43331
FDA-CBER-2021-5683-1226624-1227706_27034_S1_M5_c4591001-ia efficacy-A-adsl.csv,JPNFL,81,c4591001-ia efficacy-A-adsl,efficacy,43331
FDA-CBER-2021-5683-1226624-1227706_27034_S1_M5_c4591001-ia efficacy-A-adsl.csv,V01DT,82,c4591001-ia efficacy-A-adsl,efficacy,43331
FDA-CBER-2021-5683-1226624-1227706_27034_S1_M5_c4591001-ia efficacy-A-adsl.csv,V02DT,83,c4591001-ia efficacy-A-adsl,efficacy,43331
FDA-CBER-2021-5683-1226624-1227706_27034_S1_M5_c4591001-ia efficacy-A-adsl.csv,DVSTDT,84,c4591001-ia efficacy-A-adsl,efficacy,43331
FDA-CBER-2021-5683-1226624-1227706_27034_S1_M5_c4591001-ia efficacy-A-adsl.csv,BLDV1DT,85,c4591001-ia efficacy-A-adsl,efficacy,43331
FDA-CBER-2021-5683-1226624-1227706_27034_S1_M5_c4591001-ia efficacy-A-adsl.csv,BLDV2DT,86,c4591001-ia efficacy-A-adsl,efficacy,43331
FDA-CBER-2021-5683-1226624-1227706_27034_S1_M5_c4591001-ia efficacy-A-adsl.csv,BLDV3ADT,87,c4591001-ia efficacy-A-adsl,efficacy,43331
FDA-CBER-2021-5683-1226624-1227706_27034_S1_M5_c4591001-ia efficacy-A-adsl.csv,BLDV4ADT,88,c4591001-ia efficacy-A-adsl,efficacy,43331
FDA-CBER-2021-5683-1226624-1227706_27034_S1_M5_c4591001-ia efficacy-A-adsl.csv,BLDV5ADT,89,c4591001-ia efficacy-A-adsl,efficacy,43331
FDA-CBER-2021-5683-1226624-1227706_27034_S1_M5_c4591001-ia efficacy-A-adsl.csv,BLDV3DT,90,c4591001-ia efficacy-A-adsl,efficacy,43331
FDA-CBER-2021-5683-1226624-1227706_27034_S1_M5_c4591001-ia efficacy-A-adsl.csv,BLDV4DT,91,c4591001-ia efficacy-A-adsl,efficacy,43331
FDA-CBER-2021-5683-1226624-1227706_27034_S1_M5_c4591001-ia efficacy-A-adsl.csv,BLDV5DT,92,c4591001-ia efficacy-A-adsl,efficacy,43331
FDA-CBER-2021-5683-1226624-1227706_27034_S1_M5_c4591001-ia efficacy-A-adsl.csv,BLDV6DT,93,c4591001-ia efficacy-A-adsl,efficacy,43331
FDA-CBER-2021-5683-1226624-1227706_27034_S1_M5_c4591001-ia efficacy-A-adsl.csv,BLDV7DT,94,c4591001-ia efficacy-A-adsl,efficacy,43331
FDA-CBER-2021-5683-1226624-1227706_27034_S1_M5_c4591001-ia efficacy-A-adsl.csv,BLDV8DT,95,c4591001-ia efficacy-A-adsl,efficacy,43331
FDA-CBER-2021-5683-1226624-1227706_27034_S1_M5_c4591001-ia efficacy-A-adsl.csv,BLDV9DT,96,c4591001-ia efficacy-A-adsl,efficacy,43331
FDA-CBER-2021-5683-1226624-1227706_27034_S1_M5_c4591001-ia efficacy-A-adsl.csv,INCL1FL,97,c4591001-ia efficacy-A-adsl,efficacy,43331
FDA-CBER-2021-5683-1226624-1227706_27034_S1_M5_c4591001-ia efficacy-A-adsl.csv,INCL2FL,98,c4591001-ia efficacy-A-adsl,efficacy,43331
FDA-CBER-2021-5683-1226624-1227706_27034_S1_M5_c4591001-ia efficacy-A-adsl.csv,INCL3FL,99,c4591001-ia efficacy-A-adsl,efficacy,43331
FDA-CBER-2021-5683-1226624-1227706_27034_S1_M5_c4591001-ia efficacy-A-adsl.csv,INCL4FL,100,c4591001-ia efficacy-A-adsl,efficacy,43331
FDA-CBER-2021-5683-1226624-1227706_27034_S1_M5_c4591001-ia efficacy-A-adsl.csv,INCL5FL,101,c4591001-ia efficacy-A-adsl,efficacy,43331
FDA-CBER-2021-5683-1226624-1227706_27034_S1_M5_c4591001-ia efficacy-A-adsl.csv,INCL6FL,102,c4591001-ia efficacy-A-adsl,efficacy,43331
FDA-CBER-2021-5683-1226624-1227706_27034_S1_M5_c4591001-ia efficacy-A-adsl.csv,INCL7FL,103,c4591001-ia efficacy-A-adsl,efficacy,43331
FDA-CBER-2021-5683-1226624-1227706_27034_S1_M5_c4591001-ia efficacy-A-adsl.csv,INCL8FL,104,c4591001-ia efficacy-A-adsl,efficacy,43331
FDA-CBER-2021-5683-1226624-1227706_27034_S1_M5_c4591001-ia efficacy-A-adsl.csv,INCL9FL,105,c4591001-ia efficacy-A-adsl,efficacy,43331
FDA-CBER-2021-5683-1226624-1227706_27034_S1_M5_c4591001-ia efficacy-A-adsl.csv,EVAL01FL,106,c4591001-ia efficacy-A-adsl,efficacy,43331
FDA-CBER-2021-5683-1226624-1227706_27034_S1_M5_c4591001-ia efficacy-A-adsl.csv,EVAL02FL,107,c4591001-ia efficacy-A-adsl,efficacy,43331
FDA-CBER-2021-5683-1226624-1227706_27034_S1_M5_c4591001-ia efficacy-A-adsl.csv,AAI01FL,108,c4591001-ia efficacy-A-adsl,efficacy,43331
FDA-CBER-2021-5683-1226624-1227706_27034_S1_M5_c4591001-ia efficacy-A-adsl.csv,AAI02FL,109,c4591001-ia efficacy-A-adsl,efficacy,43331
FDA-CBER-2021-5683-1226624-1227706_27034_S1_M5_c4591001-ia efficacy-A-adsl.csv,EVALEFFL,110,c4591001-ia efficacy-A-adsl,efficacy,43331
FDA-CBER-2021-5683-1226624-1227706_27034_S1_M5_c4591001-ia efficacy-A-adsl.csv,AAI1EFFL,111,c4591001-ia efficacy-A-adsl,efficacy,43331
FDA-CBER-2021-5683-1226624-1227706_27034_S1_M5_c4591001-ia efficacy-A-adsl.csv,AAI2EFFL,112,c4591001-ia efficacy-A-adsl,efficacy,43331
FDA-CBER-2021-5683-1226624-1227706_27034_S1_M5_c4591001-ia efficacy-A-adsl.csv,BLDV1FL,113,c4591001-ia efficacy-A-adsl,efficacy,43331
FDA-CBER-2021-5683-1226624-1227706_27034_S1_M5_c4591001-ia efficacy-A-adsl.csv,BLDV2FL,114,c4591001-ia efficacy-A-adsl,efficacy,43331
FDA-CBER-2021-5683-1226624-1227706_27034_S1_M5_c4591001-ia efficacy-A-adsl.csv,BLDV3FL,115,c4591001-ia efficacy-A-adsl,efficacy,43331
FDA-CBER-2021-5683-1226624-1227706_27034_S1_M5_c4591001-ia efficacy-A-adsl.csv,BLDV4FL,116,c4591001-ia efficacy-A-adsl,efficacy,43331
FDA-CBER-2021-5683-1226624-1227706_27034_S1_M5_c4591001-ia efficacy-A-adsl.csv,BLDV5FL,117,c4591001-ia efficacy-A-adsl,efficacy,43331
FDA-CBER-2021-5683-1226624-1227706_27034_S1_M5_c4591001-ia efficacy-A-adsl.csv,BLDV6FL,118,c4591001-ia efficacy-A-adsl,efficacy,43331
FDA-CBER-2021-5683-1226624-1227706_27034_S1_M5_c4591001-ia efficacy-A-adsl.csv,BLDV7FL,119,c4591001-ia efficacy-A-adsl,efficacy,43331
FDA-CBER-2021-5683-1226624-1227706_27034_S1_M5_c4591001-ia efficacy-A-adsl.csv,BLDV8FL,120,c4591001-ia efficacy-A-adsl,efficacy,43331
FDA-CBER-2021-5683-1226624-1227706_27034_S1_M5_c4591001-ia efficacy-A-adsl.csv,BLDV9FL,121,c4591001-ia efficacy-A-adsl,efficacy,43331
FDA-CBER-2021-5683-1226624-1227706_27034_S1_M5_c4591001-ia efficacy-A-adsl.csv,MULENRFL,122,c4591001-ia efficacy-A-adsl,efficacy,43331
FDA-CBER-2021-5683-1226624-1227706_27034_S1_M5_c4591001-ia efficacy-A-adsl.csv,STEXCFL,123,c4591001-ia efficacy-A-adsl,efficacy,43331
FDA-CBER-2021-5683-1226624-1227706_27034_S1_M5_c4591001-ia efficacy-A-adsl.csv,UNKRDFL,124,c4591001-ia efficacy-A-adsl,efficacy,43331
FDA-CBER-2021-5683-1226624-1227706_27034_S1_M5_c4591001-ia efficacy-A-adsl.csv,EXCL3FL,125,c4591001-ia efficacy-A-adsl,efficacy,43331
FDA-CBER-2021-5683-1226624-1227706_27034_S1_M5_c4591001-ia efficacy-A-adsl.csv,EXCRIT3,126,c4591001-ia efficacy-A-adsl,efficacy,43331
FDA-CBER-2021-5683-1226624-1227706_27034_S1_M5_c4591001-ia efficacy-A-adsl.csv,EXCL8FL,127,c4591001-ia efficacy-A-adsl,efficacy,43331
FDA-CBER-2021-5683-1226624-1227706_27034_S1_M5_c4591001-ia efficacy-A-adsl.csv,EXCRIT8,128,c4591001-ia efficacy-A-adsl,efficacy,43331
FDA-CBER-2021-5683-1226624-1227706_27034_S1_M5_c4591001-ia efficacy-A-adsl.csv,EXCL1FL,129,c4591001-ia efficacy-A-adsl,efficacy,43331
FDA-CBER-2021-5683-1226624-1227706_27034_S1_M5_c4591001-ia efficacy-A-adsl.csv,EXCRIT1,130,c4591001-ia efficacy-A-adsl,efficacy,43331
FDA-CBER-2021-5683-1226624-1227706_27034_S1_M5_c4591001-ia efficacy-A-adsl.csv,EXCL2FL,131,c4591001-ia efficacy-A-adsl,efficacy,43331
FDA-CBER-2021-5683-1226624-1227706_27034_S1_M5_c4591001-ia efficacy-A-adsl.csv,EXCRIT2,132,c4591001-ia efficacy-A-adsl,efficacy,43331
FDA-CBER-2021-5683-1226624-1227706_27034_S1_M5_c4591001-ia efficacy-A-adsl.csv,EXCL4FL,133,c4591001-ia efficacy-A-adsl,efficacy,43331
FDA-CBER-2021-5683-1226624-1227706_27034_S1_M5_c4591001-ia efficacy-A-adsl.csv,EXCRIT4,134,c4591001-ia efficacy-A-adsl,efficacy,43331
FDA-CBER-2021-5683-1226624-1227706_27034_S1_M5_c4591001-ia efficacy-A-adsl.csv,EXCL5FL,135,c4591001-ia efficacy-A-adsl,efficacy,43331
FDA-CBER-2021-5683-1226624-1227706_27034_S1_M5_c4591001-ia efficacy-A-adsl.csv,EXCRIT5,136,c4591001-ia efficacy-A-adsl,efficacy,43331
FDA-CBER-2021-5683-1226624-1227706_27034_S1_M5_c4591001-ia efficacy-A-adsl.csv,EXCL7FL,137,c4591001-ia efficacy-A-adsl,efficacy,43331
FDA-CBER-2021-5683-1226624-1227706_27034_S1_M5_c4591001-ia efficacy-A-adsl.csv,EXCRIT7,138,c4591001-ia efficacy-A-adsl,efficacy,43331
FDA-CBER-2021-5683-1226624-1227706_27034_S1_M5_c4591001-ia efficacy-A-adsl.csv,EXCL9FL,139,c4591001-ia efficacy-A-adsl,efficacy,43331
FDA-CBER-2021-5683-1226624-1227706_27034_S1_M5_c4591001-ia efficacy-A-adsl.csv,EXCRIT9,140,c4591001-ia efficacy-A-adsl,efficacy,43331
FDA-CBER-2021-5683-1226624-1227706_27034_S1_M5_c4591001-ia efficacy-A-adsl.csv,EXCL6FL,141,c4591001-ia efficacy-A-adsl,efficacy,43331
FDA-CBER-2021-5683-1226624-1227706_27034_S1_M5_c4591001-ia efficacy-A-adsl.csv,EXCRIT6,142,c4591001-ia efficacy-A-adsl,efficacy,43331
FDA-CBER-2021-5683-1226624-1227706_27034_S1_M5_c4591001-ia efficacy-A-adsl.csv,DS30KFL,143,c4591001-ia efficacy-A-adsl,efficacy,43331
FDA-CBER-2021-5683-1226624-1227706_27034_S1_M5_c4591001-ia efficacy-A-adsl.csv,NIGV1FL,144,c4591001-ia efficacy-A-adsl,efficacy,43331
FDA-CBER-2021-5683-1226624-1227706_27034_S1_M5_c4591001-ia efficacy-A-adsl.csv,NAATNFL,145,c4591001-ia efficacy-A-adsl,efficacy,43331
FDA-CBER-2021-5683-1226624-1227706_27034_S1_M5_c4591001-ia efficacy-A-adsl.csv,COVBLST,146,c4591001-ia efficacy-A-adsl,efficacy,43331
FDA-CBER-2021-5683-1226624-1227706_27034_S1_M5_c4591001-ia efficacy-A-adsl.csv,BMICAT,147,c4591001-ia efficacy-A-adsl,efficacy,43331
FDA-CBER-2021-5683-1226624-1227706_27034_S1_M5_c4591001-ia efficacy-A-adsl.csv,BMICATN,148,c4591001-ia efficacy-A-adsl,efficacy,43331
FDA-CBER-2021-5683-1226624-1227706_27034_S1_M5_c4591001-ia efficacy-A-adsl.csv,FU2MPD2,149,c4591001-ia efficacy-A-adsl,efficacy,43331
FDA-CBER-2021-5683-1226624-1227706_27034_S1_M5_c4591001-ia efficacy-A-adsl.csv,F2MP2CAT,150,c4591001-ia efficacy-A-adsl,efficacy,43331
FDA-CBER-2021-5683-1226624-1227706_27034_S1_M5_c4591001-ia efficacy-A-adsl.csv,F2MP2CAN,151,c4591001-ia efficacy-A-adsl,efficacy,43331
FDA-CBER-2021-5683-1226624-1227706_27034_S1_M5_c4591001-ia efficacy-A-adsl.csv,COMBODFL,152,c4591001-ia efficacy-A-adsl,efficacy,43331
FDA-CBER-2021-5683-1227707-1231490_27034_S1_M5_c4591001-ia efficacy-A-adsympt.csv,STUDYID,1,c4591001-ia efficacy-A-adsympt,efficacy,151377
FDA-CBER-2021-5683-1227707-1231490_27034_S1_M5_c4591001-ia efficacy-A-adsympt.csv,USUBJID,2,c4591001-ia efficacy-A-adsympt,efficacy,151377
FDA-CBER-2021-5683-1227707-1231490_27034_S1_M5_c4591001-ia efficacy-A-adsympt.csv,SITEID,3,c4591001-ia efficacy-A-adsympt,efficacy,151377
FDA-CBER-2021-5683-1227707-1231490_27034_S1_M5_c4591001-ia efficacy-A-adsympt.csv,SUBJID,4,c4591001-ia efficacy-A-adsympt,efficacy,151377
FDA-CBER-2021-5683-1227707-1231490_27034_S1_M5_c4591001-ia efficacy-A-adsympt.csv,BRTHDT,5,c4591001-ia efficacy-A-adsympt,efficacy,151377
FDA-CBER-2021-5683-1227707-1231490_27034_S1_M5_c4591001-ia efficacy-A-adsympt.csv,AGEGR1N,6,c4591001-ia efficacy-A-adsympt,efficacy,151377
FDA-CBER-2021-5683-1227707-1231490_27034_S1_M5_c4591001-ia efficacy-A-adsympt.csv,AGEGR1,7,c4591001-ia efficacy-A-adsympt,efficacy,151377
FDA-CBER-2021-5683-1227707-1231490_27034_S1_M5_c4591001-ia efficacy-A-adsympt.csv,SEX,8,c4591001-ia efficacy-A-adsympt,efficacy,151377
FDA-CBER-2021-5683-1227707-1231490_27034_S1_M5_c4591001-ia efficacy-A-adsympt.csv,RACE,9,c4591001-ia efficacy-A-adsympt,efficacy,151377
FDA-CBER-2021-5683-1227707-1231490_27034_S1_M5_c4591001-ia efficacy-A-adsympt.csv,ETHNIC,10,c4591001-ia efficacy-A-adsympt,efficacy,151377
FDA-CBER-2021-5683-1227707-1231490_27034_S1_M5_c4591001-ia efficacy-A-adsympt.csv,ARMCD,11,c4591001-ia efficacy-A-adsympt,efficacy,151377
FDA-CBER-2021-5683-1227707-1231490_27034_S1_M5_c4591001-ia efficacy-A-adsympt.csv,ARM,12,c4591001-ia efficacy-A-adsympt,efficacy,151377
FDA-CBER-2021-5683-1227707-1231490_27034_S1_M5_c4591001-ia efficacy-A-adsympt.csv,ACTARMCD,13,c4591001-ia efficacy-A-adsympt,efficacy,151377
FDA-CBER-2021-5683-1227707-1231490_27034_S1_M5_c4591001-ia efficacy-A-adsympt.csv,ACTARM,14,c4591001-ia efficacy-A-adsympt,efficacy,151377
FDA-CBER-2021-5683-1227707-1231490_27034_S1_M5_c4591001-ia efficacy-A-adsympt.csv,PARAMN,15,c4591001-ia efficacy-A-adsympt,efficacy,151377
FDA-CBER-2021-5683-1227707-1231490_27034_S1_M5_c4591001-ia efficacy-A-adsympt.csv,PARAMCD,16,c4591001-ia efficacy-A-adsympt,efficacy,151377
FDA-CBER-2021-5683-1227707-1231490_27034_S1_M5_c4591001-ia efficacy-A-adsympt.csv,PARAM,17,c4591001-ia efficacy-A-adsympt,efficacy,151377
FDA-CBER-2021-5683-1227707-1231490_27034_S1_M5_c4591001-ia efficacy-A-adsympt.csv,PARCAT1,18,c4591001-ia efficacy-A-adsympt,efficacy,151377
FDA-CBER-2021-5683-1227707-1231490_27034_S1_M5_c4591001-ia efficacy-A-adsympt.csv,PARCAT2,19,c4591001-ia efficacy-A-adsympt,efficacy,151377
FDA-CBER-2021-5683-1227707-1231490_27034_S1_M5_c4591001-ia efficacy-A-adsympt.csv,AVAL,20,c4591001-ia efficacy-A-adsympt,efficacy,151377
FDA-CBER-2021-5683-1227707-1231490_27034_S1_M5_c4591001-ia efficacy-A-adsympt.csv,AVALC,21,c4591001-ia efficacy-A-adsympt,efficacy,151377
FDA-CBER-2021-5683-1227707-1231490_27034_S1_M5_c4591001-ia efficacy-A-adsympt.csv,VISITNUM,22,c4591001-ia efficacy-A-adsympt,efficacy,151377
FDA-CBER-2021-5683-1227707-1231490_27034_S1_M5_c4591001-ia efficacy-A-adsympt.csv,VISIT,23,c4591001-ia efficacy-A-adsympt,efficacy,151377
FDA-CBER-2021-5683-1227707-1231490_27034_S1_M5_c4591001-ia efficacy-A-adsympt.csv,AVISITN,24,c4591001-ia efficacy-A-adsympt,efficacy,151377
FDA-CBER-2021-5683-1227707-1231490_27034_S1_M5_c4591001-ia efficacy-A-adsympt.csv,AVISIT,25,c4591001-ia efficacy-A-adsympt,efficacy,151377
FDA-CBER-2021-5683-1227707-1231490_27034_S1_M5_c4591001-ia efficacy-A-adsympt.csv,ADT,26,c4591001-ia efficacy-A-adsympt,efficacy,151377
FDA-CBER-2021-5683-1227707-1231490_27034_S1_M5_c4591001-ia efficacy-A-adsympt.csv,ADY,27,c4591001-ia efficacy-A-adsympt,efficacy,151377
FDA-CBER-2021-5683-1227707-1231490_27034_S1_M5_c4591001-ia efficacy-A-adsympt.csv,ASTDT,28,c4591001-ia efficacy-A-adsympt,efficacy,151377
FDA-CBER-2021-5683-1227707-1231490_27034_S1_M5_c4591001-ia efficacy-A-adsympt.csv,ASTDY,29,c4591001-ia efficacy-A-adsympt,efficacy,151377
FDA-CBER-2021-5683-1227707-1231490_27034_S1_M5_c4591001-ia efficacy-A-adsympt.csv,AENDT,30,c4591001-ia efficacy-A-adsympt,efficacy,151377
FDA-CBER-2021-5683-1227707-1231490_27034_S1_M5_c4591001-ia efficacy-A-adsympt.csv,AENDY,31,c4591001-ia efficacy-A-adsympt,efficacy,151377
FDA-CBER-2021-5683-1227707-1231490_27034_S1_M5_c4591001-ia efficacy-A-adsympt.csv,ISSPEC,32,c4591001-ia efficacy-A-adsympt,efficacy,151377
FDA-CBER-2021-5683-1227707-1231490_27034_S1_M5_c4591001-ia efficacy-A-adsympt.csv,ISMETHOD,33,c4591001-ia efficacy-A-adsympt,efficacy,151377
FDA-CBER-2021-5683-1227707-1231490_27034_S1_M5_c4591001-ia efficacy-A-adsympt.csv,MBLOC,34,c4591001-ia efficacy-A-adsympt,efficacy,151377
FDA-CBER-2021-5683-1227707-1231490_27034_S1_M5_c4591001-ia efficacy-A-adsympt.csv,MBSPEC,35,c4591001-ia efficacy-A-adsympt,efficacy,151377
FDA-CBER-2021-5683-1227707-1231490_27034_S1_M5_c4591001-ia efficacy-A-adsympt.csv,MBMETHOD,36,c4591001-ia efficacy-A-adsympt,efficacy,151377
FDA-CBER-2021-5683-1227707-1231490_27034_S1_M5_c4591001-ia efficacy-A-adsympt.csv,PRPRESP,37,c4591001-ia efficacy-A-adsympt,efficacy,151377
FDA-CBER-2021-5683-1227707-1231490_27034_S1_M5_c4591001-ia efficacy-A-adsympt.csv,VSSTRESU,38,c4591001-ia efficacy-A-adsympt,efficacy,151377
FDA-CBER-2021-5683-1227707-1231490_27034_S1_M5_c4591001-ia efficacy-A-adsympt.csv,RANDDT,39,c4591001-ia efficacy-A-adsympt,efficacy,151377
FDA-CBER-2021-5683-1227707-1231490_27034_S1_M5_c4591001-ia efficacy-A-adsympt.csv,TRTSDT,40,c4591001-ia efficacy-A-adsympt,efficacy,151377
FDA-CBER-2021-5683-1227707-1231490_27034_S1_M5_c4591001-ia efficacy-A-adsympt.csv,TRTEDT,41,c4591001-ia efficacy-A-adsympt,efficacy,151377
FDA-CBER-2021-5683-1227707-1231490_27034_S1_M5_c4591001-ia efficacy-A-adsympt.csv,VAX101DT,42,c4591001-ia efficacy-A-adsympt,efficacy,151377
FDA-CBER-2021-5683-1227707-1231490_27034_S1_M5_c4591001-ia efficacy-A-adsympt.csv,VAX102DT,43,c4591001-ia efficacy-A-adsympt,efficacy,151377
FDA-CBER-2021-5683-1227707-1231490_27034_S1_M5_c4591001-ia efficacy-A-adsympt.csv,ENRLFL,44,c4591001-ia efficacy-A-adsympt,efficacy,151377
FDA-CBER-2021-5683-1227707-1231490_27034_S1_M5_c4591001-ia efficacy-A-adsympt.csv,RANDFL,45,c4591001-ia efficacy-A-adsympt,efficacy,151377
FDA-CBER-2021-5683-1227707-1231490_27034_S1_M5_c4591001-ia efficacy-A-adsympt.csv,SAFFL,46,c4591001-ia efficacy-A-adsympt,efficacy,151377
FDA-CBER-2021-5683-1227707-1231490_27034_S1_M5_c4591001-ia efficacy-A-adsympt.csv,EVALEFFL,47,c4591001-ia efficacy-A-adsympt,efficacy,151377
FDA-CBER-2021-5683-1227707-1231490_27034_S1_M5_c4591001-ia efficacy-A-adsympt.csv,AAI1EFFL,48,c4591001-ia efficacy-A-adsympt,efficacy,151377
FDA-CBER-2021-5683-1227707-1231490_27034_S1_M5_c4591001-ia efficacy-A-adsympt.csv,AAI2EFFL,49,c4591001-ia efficacy-A-adsympt,efficacy,151377
FDA-CBER-2021-5683-1231982-1232400_27034_S1_M5_c4591001-ia efficacy-S-ae.csv,STUDYID,1,c4591001-ia efficacy-S-ae,efficacy,16767
FDA-CBER-2021-5683-1231982-1232400_27034_S1_M5_c4591001-ia efficacy-S-ae.csv,DOMAIN,2,c4591001-ia efficacy-S-ae,efficacy,16767
FDA-CBER-2021-5683-1231982-1232400_27034_S1_M5_c4591001-ia efficacy-S-ae.csv,USUBJID,3,c4591001-ia efficacy-S-ae,efficacy,16767
FDA-CBER-2021-5683-1231982-1232400_27034_S1_M5_c4591001-ia efficacy-S-ae.csv,AESEQ,4,c4591001-ia efficacy-S-ae,efficacy,16767
FDA-CBER-2021-5683-1231982-1232400_27034_S1_M5_c4591001-ia efficacy-S-ae.csv,AEREFID,5,c4591001-ia efficacy-S-ae,efficacy,16767
FDA-CBER-2021-5683-1231982-1232400_27034_S1_M5_c4591001-ia efficacy-S-ae.csv,AESPID,6,c4591001-ia efficacy-S-ae,efficacy,16767
FDA-CBER-2021-5683-1231982-1232400_27034_S1_M5_c4591001-ia efficacy-S-ae.csv,AELNKGRP,7,c4591001-ia efficacy-S-ae,efficacy,16767
FDA-CBER-2021-5683-1231982-1232400_27034_S1_M5_c4591001-ia efficacy-S-ae.csv,AETERM,8,c4591001-ia efficacy-S-ae,efficacy,16767
FDA-CBER-2021-5683-1231982-1232400_27034_S1_M5_c4591001-ia efficacy-S-ae.csv,AELLT,9,c4591001-ia efficacy-S-ae,efficacy,16767
FDA-CBER-2021-5683-1231982-1232400_27034_S1_M5_c4591001-ia efficacy-S-ae.csv,AELLTCD,10,c4591001-ia efficacy-S-ae,efficacy,16767
FDA-CBER-2021-5683-1231982-1232400_27034_S1_M5_c4591001-ia efficacy-S-ae.csv,AEDECOD,11,c4591001-ia efficacy-S-ae,efficacy,16767
FDA-CBER-2021-5683-1231982-1232400_27034_S1_M5_c4591001-ia efficacy-S-ae.csv,AEPTCD,12,c4591001-ia efficacy-S-ae,efficacy,16767
FDA-CBER-2021-5683-1231982-1232400_27034_S1_M5_c4591001-ia efficacy-S-ae.csv,AEHLT,13,c4591001-ia efficacy-S-ae,efficacy,16767
FDA-CBER-2021-5683-1231982-1232400_27034_S1_M5_c4591001-ia efficacy-S-ae.csv,AEHLTCD,14,c4591001-ia efficacy-S-ae,efficacy,16767
FDA-CBER-2021-5683-1231982-1232400_27034_S1_M5_c4591001-ia efficacy-S-ae.csv,AEHLGT,15,c4591001-ia efficacy-S-ae,efficacy,16767
FDA-CBER-2021-5683-1231982-1232400_27034_S1_M5_c4591001-ia efficacy-S-ae.csv,AEHLGTCD,16,c4591001-ia efficacy-S-ae,efficacy,16767
FDA-CBER-2021-5683-1231982-1232400_27034_S1_M5_c4591001-ia efficacy-S-ae.csv,AECAT,17,c4591001-ia efficacy-S-ae,efficacy,16767
FDA-CBER-2021-5683-1231982-1232400_27034_S1_M5_c4591001-ia efficacy-S-ae.csv,AESCAT,18,c4591001-ia efficacy-S-ae,efficacy,16767
FDA-CBER-2021-5683-1231982-1232400_27034_S1_M5_c4591001-ia efficacy-S-ae.csv,AEPRESP,19,c4591001-ia efficacy-S-ae,efficacy,16767
FDA-CBER-2021-5683-1231982-1232400_27034_S1_M5_c4591001-ia efficacy-S-ae.csv,AEBODSYS,20,c4591001-ia efficacy-S-ae,efficacy,16767
FDA-CBER-2021-5683-1231982-1232400_27034_S1_M5_c4591001-ia efficacy-S-ae.csv,AEBDSYCD,21,c4591001-ia efficacy-S-ae,efficacy,16767
FDA-CBER-2021-5683-1231982-1232400_27034_S1_M5_c4591001-ia efficacy-S-ae.csv,AESOC,22,c4591001-ia efficacy-S-ae,efficacy,16767
FDA-CBER-2021-5683-1231982-1232400_27034_S1_M5_c4591001-ia efficacy-S-ae.csv,AESOCCD,23,c4591001-ia efficacy-S-ae,efficacy,16767
FDA-CBER-2021-5683-1231982-1232400_27034_S1_M5_c4591001-ia efficacy-S-ae.csv,AELOC,24,c4591001-ia efficacy-S-ae,efficacy,16767
FDA-CBER-2021-5683-1231982-1232400_27034_S1_M5_c4591001-ia efficacy-S-ae.csv,AELAT,25,c4591001-ia efficacy-S-ae,efficacy,16767
FDA-CBER-2021-5683-1231982-1232400_27034_S1_M5_c4591001-ia efficacy-S-ae.csv,AESER,26,c4591001-ia efficacy-S-ae,efficacy,16767
FDA-CBER-2021-5683-1231982-1232400_27034_S1_M5_c4591001-ia efficacy-S-ae.csv,AEACN,27,c4591001-ia efficacy-S-ae,efficacy,16767
FDA-CBER-2021-5683-1231982-1232400_27034_S1_M5_c4591001-ia efficacy-S-ae.csv,AEREL,28,c4591001-ia efficacy-S-ae,efficacy,16767
FDA-CBER-2021-5683-1231982-1232400_27034_S1_M5_c4591001-ia efficacy-S-ae.csv,AERELNST,29,c4591001-ia efficacy-S-ae,efficacy,16767
FDA-CBER-2021-5683-1231982-1232400_27034_S1_M5_c4591001-ia efficacy-S-ae.csv,AEOUT,30,c4591001-ia efficacy-S-ae,efficacy,16767
FDA-CBER-2021-5683-1231982-1232400_27034_S1_M5_c4591001-ia efficacy-S-ae.csv,AESCONG,31,c4591001-ia efficacy-S-ae,efficacy,16767
FDA-CBER-2021-5683-1231982-1232400_27034_S1_M5_c4591001-ia efficacy-S-ae.csv,AESDISAB,32,c4591001-ia efficacy-S-ae,efficacy,16767
FDA-CBER-2021-5683-1231982-1232400_27034_S1_M5_c4591001-ia efficacy-S-ae.csv,AESDTH,33,c4591001-ia efficacy-S-ae,efficacy,16767
FDA-CBER-2021-5683-1231982-1232400_27034_S1_M5_c4591001-ia efficacy-S-ae.csv,AESHOSP,34,c4591001-ia efficacy-S-ae,efficacy,16767
FDA-CBER-2021-5683-1231982-1232400_27034_S1_M5_c4591001-ia efficacy-S-ae.csv,AESLIFE,35,c4591001-ia efficacy-S-ae,efficacy,16767
FDA-CBER-2021-5683-1231982-1232400_27034_S1_M5_c4591001-ia efficacy-S-ae.csv,AESMIE,36,c4591001-ia efficacy-S-ae,efficacy,16767
FDA-CBER-2021-5683-1231982-1232400_27034_S1_M5_c4591001-ia efficacy-S-ae.csv,AECONTRT,37,c4591001-ia efficacy-S-ae,efficacy,16767
FDA-CBER-2021-5683-1231982-1232400_27034_S1_M5_c4591001-ia efficacy-S-ae.csv,AETOXGR,38,c4591001-ia efficacy-S-ae,efficacy,16767
FDA-CBER-2021-5683-1231982-1232400_27034_S1_M5_c4591001-ia efficacy-S-ae.csv,EPOCH,39,c4591001-ia efficacy-S-ae,efficacy,16767
FDA-CBER-2021-5683-1231982-1232400_27034_S1_M5_c4591001-ia efficacy-S-ae.csv,AESTDTC,40,c4591001-ia efficacy-S-ae,efficacy,16767
FDA-CBER-2021-5683-1231982-1232400_27034_S1_M5_c4591001-ia efficacy-S-ae.csv,AEENDTC,41,c4591001-ia efficacy-S-ae,efficacy,16767
FDA-CBER-2021-5683-1231982-1232400_27034_S1_M5_c4591001-ia efficacy-S-ae.csv,AESTDY,42,c4591001-ia efficacy-S-ae,efficacy,16767
FDA-CBER-2021-5683-1231982-1232400_27034_S1_M5_c4591001-ia efficacy-S-ae.csv,AEENDY,43,c4591001-ia efficacy-S-ae,efficacy,16767
FDA-CBER-2021-5683-1231982-1232400_27034_S1_M5_c4591001-ia efficacy-S-ae.csv,AEDUR,44,c4591001-ia efficacy-S-ae,efficacy,16767
FDA-CBER-2021-5683-1231982-1232400_27034_S1_M5_c4591001-ia efficacy-S-ae.csv,AETPTREF,45,c4591001-ia efficacy-S-ae,efficacy,16767
FDA-CBER-2021-5683-1231982-1232400_27034_S1_M5_c4591001-ia efficacy-S-ae.csv,AERFTDTC,46,c4591001-ia efficacy-S-ae,efficacy,16767
FDA-CBER-2021-5683-1231982-1232400_27034_S1_M5_c4591001-ia efficacy-S-ae.csv,AEENRTPT,47,c4591001-ia efficacy-S-ae,efficacy,16767
FDA-CBER-2021-5683-1231982-1232400_27034_S1_M5_c4591001-ia efficacy-S-ae.csv,AEENTPT,48,c4591001-ia efficacy-S-ae,efficacy,16767
FDA-CBER-2021-5683-1232401-1239490_27034_S1_M5_c4591001-ia efficacy-S-ce.csv,STUDYID,1,c4591001-ia efficacy-S-ce,efficacy,283610
FDA-CBER-2021-5683-1232401-1239490_27034_S1_M5_c4591001-ia efficacy-S-ce.csv,DOMAIN,2,c4591001-ia efficacy-S-ce,efficacy,283610
FDA-CBER-2021-5683-1232401-1239490_27034_S1_M5_c4591001-ia efficacy-S-ce.csv,USUBJID,3,c4591001-ia efficacy-S-ce,efficacy,283610
FDA-CBER-2021-5683-1232401-1239490_27034_S1_M5_c4591001-ia efficacy-S-ce.csv,CESEQ,4,c4591001-ia efficacy-S-ce,efficacy,283610
FDA-CBER-2021-5683-1232401-1239490_27034_S1_M5_c4591001-ia efficacy-S-ce.csv,CEGRPID,5,c4591001-ia efficacy-S-ce,efficacy,283610
FDA-CBER-2021-5683-1232401-1239490_27034_S1_M5_c4591001-ia efficacy-S-ce.csv,CELNKGRP,6,c4591001-ia efficacy-S-ce,efficacy,283610
FDA-CBER-2021-5683-1232401-1239490_27034_S1_M5_c4591001-ia efficacy-S-ce.csv,CETERM,7,c4591001-ia efficacy-S-ce,efficacy,283610
FDA-CBER-2021-5683-1232401-1239490_27034_S1_M5_c4591001-ia efficacy-S-ce.csv,CELLT,8,c4591001-ia efficacy-S-ce,efficacy,283610
FDA-CBER-2021-5683-1232401-1239490_27034_S1_M5_c4591001-ia efficacy-S-ce.csv,CELLTCD,9,c4591001-ia efficacy-S-ce,efficacy,283610
FDA-CBER-2021-5683-1232401-1239490_27034_S1_M5_c4591001-ia efficacy-S-ce.csv,CEDECOD,10,c4591001-ia efficacy-S-ce,efficacy,283610
FDA-CBER-2021-5683-1232401-1239490_27034_S1_M5_c4591001-ia efficacy-S-ce.csv,CEPTCD,11,c4591001-ia efficacy-S-ce,efficacy,283610
FDA-CBER-2021-5683-1232401-1239490_27034_S1_M5_c4591001-ia efficacy-S-ce.csv,CEHLT,12,c4591001-ia efficacy-S-ce,efficacy,283610
FDA-CBER-2021-5683-1232401-1239490_27034_S1_M5_c4591001-ia efficacy-S-ce.csv,CEHLTCD,13,c4591001-ia efficacy-S-ce,efficacy,283610
FDA-CBER-2021-5683-1232401-1239490_27034_S1_M5_c4591001-ia efficacy-S-ce.csv,CEHLGT,14,c4591001-ia efficacy-S-ce,efficacy,283610
FDA-CBER-2021-5683-1232401-1239490_27034_S1_M5_c4591001-ia efficacy-S-ce.csv,CEHLGTCD,15,c4591001-ia efficacy-S-ce,efficacy,283610
FDA-CBER-2021-5683-1232401-1239490_27034_S1_M5_c4591001-ia efficacy-S-ce.csv,CECAT,16,c4591001-ia efficacy-S-ce,efficacy,283610
FDA-CBER-2021-5683-1232401-1239490_27034_S1_M5_c4591001-ia efficacy-S-ce.csv,CESCAT,17,c4591001-ia efficacy-S-ce,efficacy,283610
FDA-CBER-2021-5683-1232401-1239490_27034_S1_M5_c4591001-ia efficacy-S-ce.csv,CEPRESP,18,c4591001-ia efficacy-S-ce,efficacy,283610
FDA-CBER-2021-5683-1232401-1239490_27034_S1_M5_c4591001-ia efficacy-S-ce.csv,CEOCCUR,19,c4591001-ia efficacy-S-ce,efficacy,283610
FDA-CBER-2021-5683-1232401-1239490_27034_S1_M5_c4591001-ia efficacy-S-ce.csv,CESTAT,20,c4591001-ia efficacy-S-ce,efficacy,283610
FDA-CBER-2021-5683-1232401-1239490_27034_S1_M5_c4591001-ia efficacy-S-ce.csv,CEREASND,21,c4591001-ia efficacy-S-ce,efficacy,283610
FDA-CBER-2021-5683-1232401-1239490_27034_S1_M5_c4591001-ia efficacy-S-ce.csv,CEBODSYS,22,c4591001-ia efficacy-S-ce,efficacy,283610
FDA-CBER-2021-5683-1232401-1239490_27034_S1_M5_c4591001-ia efficacy-S-ce.csv,CEBDSYCD,23,c4591001-ia efficacy-S-ce,efficacy,283610
FDA-CBER-2021-5683-1232401-1239490_27034_S1_M5_c4591001-ia efficacy-S-ce.csv,CESOC,24,c4591001-ia efficacy-S-ce,efficacy,283610
FDA-CBER-2021-5683-1232401-1239490_27034_S1_M5_c4591001-ia efficacy-S-ce.csv,CESOCCD,25,c4591001-ia efficacy-S-ce,efficacy,283610
FDA-CBER-2021-5683-1232401-1239490_27034_S1_M5_c4591001-ia efficacy-S-ce.csv,CELOC,26,c4591001-ia efficacy-S-ce,efficacy,283610
FDA-CBER-2021-5683-1232401-1239490_27034_S1_M5_c4591001-ia efficacy-S-ce.csv,CELAT,27,c4591001-ia efficacy-S-ce,efficacy,283610
FDA-CBER-2021-5683-1232401-1239490_27034_S1_M5_c4591001-ia efficacy-S-ce.csv,CESEV,28,c4591001-ia efficacy-S-ce,efficacy,283610
FDA-CBER-2021-5683-1232401-1239490_27034_S1_M5_c4591001-ia efficacy-S-ce.csv,CETOXGR,29,c4591001-ia efficacy-S-ce,efficacy,283610
FDA-CBER-2021-5683-1232401-1239490_27034_S1_M5_c4591001-ia efficacy-S-ce.csv,VISITNUM,30,c4591001-ia efficacy-S-ce,efficacy,283610
FDA-CBER-2021-5683-1232401-1239490_27034_S1_M5_c4591001-ia efficacy-S-ce.csv,VISIT,31,c4591001-ia efficacy-S-ce,efficacy,283610
FDA-CBER-2021-5683-1232401-1239490_27034_S1_M5_c4591001-ia efficacy-S-ce.csv,EPOCH,32,c4591001-ia efficacy-S-ce,efficacy,283610
FDA-CBER-2021-5683-1232401-1239490_27034_S1_M5_c4591001-ia efficacy-S-ce.csv,CEDTC,33,c4591001-ia efficacy-S-ce,efficacy,283610
FDA-CBER-2021-5683-1232401-1239490_27034_S1_M5_c4591001-ia efficacy-S-ce.csv,CESTDTC,34,c4591001-ia efficacy-S-ce,efficacy,283610
FDA-CBER-2021-5683-1232401-1239490_27034_S1_M5_c4591001-ia efficacy-S-ce.csv,CEENDTC,35,c4591001-ia efficacy-S-ce,efficacy,283610
FDA-CBER-2021-5683-1232401-1239490_27034_S1_M5_c4591001-ia efficacy-S-ce.csv,CEDY,36,c4591001-ia efficacy-S-ce,efficacy,283610
FDA-CBER-2021-5683-1232401-1239490_27034_S1_M5_c4591001-ia efficacy-S-ce.csv,CESTDY,37,c4591001-ia efficacy-S-ce,efficacy,283610
FDA-CBER-2021-5683-1232401-1239490_27034_S1_M5_c4591001-ia efficacy-S-ce.csv,CEENDY,38,c4591001-ia efficacy-S-ce,efficacy,283610
FDA-CBER-2021-5683-1232401-1239490_27034_S1_M5_c4591001-ia efficacy-S-ce.csv,CEDUR,39,c4591001-ia efficacy-S-ce,efficacy,283610
FDA-CBER-2021-5683-1232401-1239490_27034_S1_M5_c4591001-ia efficacy-S-ce.csv,CETPT,40,c4591001-ia efficacy-S-ce,efficacy,283610
FDA-CBER-2021-5683-1232401-1239490_27034_S1_M5_c4591001-ia efficacy-S-ce.csv,CETPTNUM,41,c4591001-ia efficacy-S-ce,efficacy,283610
FDA-CBER-2021-5683-1232401-1239490_27034_S1_M5_c4591001-ia efficacy-S-ce.csv,CETPTREF,42,c4591001-ia efficacy-S-ce,efficacy,283610
FDA-CBER-2021-5683-1232401-1239490_27034_S1_M5_c4591001-ia efficacy-S-ce.csv,CERFTDTC,43,c4591001-ia efficacy-S-ce,efficacy,283610
FDA-CBER-2021-5683-1232401-1239490_27034_S1_M5_c4591001-ia efficacy-S-ce.csv,CEEVINTX,44,c4591001-ia efficacy-S-ce,efficacy,283610
FDA-CBER-2021-5683-1232401-1239490_27034_S1_M5_c4591001-ia efficacy-S-ce.csv,CEENRTPT,45,c4591001-ia efficacy-S-ce,efficacy,283610
FDA-CBER-2021-5683-1232401-1239490_27034_S1_M5_c4591001-ia efficacy-S-ce.csv,CEENTPT,46,c4591001-ia efficacy-S-ce,efficacy,283610
FDA-CBER-2021-5683-1239491-1239580_27034_S1_M5_c4591001-ia efficacy-S-cm.csv,STUDYID,1,c4591001-ia efficacy-S-cm,efficacy,3603
FDA-CBER-2021-5683-1239491-1239580_27034_S1_M5_c4591001-ia efficacy-S-cm.csv,DOMAIN,2,c4591001-ia efficacy-S-cm,efficacy,3603
FDA-CBER-2021-5683-1239491-1239580_27034_S1_M5_c4591001-ia efficacy-S-cm.csv,USUBJID,3,c4591001-ia efficacy-S-cm,efficacy,3603
FDA-CBER-2021-5683-1239491-1239580_27034_S1_M5_c4591001-ia efficacy-S-cm.csv,CMSEQ,4,c4591001-ia efficacy-S-cm,efficacy,3603
FDA-CBER-2021-5683-1239491-1239580_27034_S1_M5_c4591001-ia efficacy-S-cm.csv,CMSPID,5,c4591001-ia efficacy-S-cm,efficacy,3603
FDA-CBER-2021-5683-1239491-1239580_27034_S1_M5_c4591001-ia efficacy-S-cm.csv,CMTRT,6,c4591001-ia efficacy-S-cm,efficacy,3603
FDA-CBER-2021-5683-1239491-1239580_27034_S1_M5_c4591001-ia efficacy-S-cm.csv,CMDECOD,7,c4591001-ia efficacy-S-cm,efficacy,3603
FDA-CBER-2021-5683-1239491-1239580_27034_S1_M5_c4591001-ia efficacy-S-cm.csv,CMCAT,8,c4591001-ia efficacy-S-cm,efficacy,3603
FDA-CBER-2021-5683-1239491-1239580_27034_S1_M5_c4591001-ia efficacy-S-cm.csv,CMSCAT,9,c4591001-ia efficacy-S-cm,efficacy,3603
FDA-CBER-2021-5683-1239491-1239580_27034_S1_M5_c4591001-ia efficacy-S-cm.csv,CMCLAS,10,c4591001-ia efficacy-S-cm,efficacy,3603
FDA-CBER-2021-5683-1239491-1239580_27034_S1_M5_c4591001-ia efficacy-S-cm.csv,CMCLASCD,11,c4591001-ia efficacy-S-cm,efficacy,3603
FDA-CBER-2021-5683-1239491-1239580_27034_S1_M5_c4591001-ia efficacy-S-cm.csv,CMDOSE,12,c4591001-ia efficacy-S-cm,efficacy,3603
FDA-CBER-2021-5683-1239491-1239580_27034_S1_M5_c4591001-ia efficacy-S-cm.csv,CMDOSTXT,13,c4591001-ia efficacy-S-cm,efficacy,3603
FDA-CBER-2021-5683-1239491-1239580_27034_S1_M5_c4591001-ia efficacy-S-cm.csv,CMDOSU,14,c4591001-ia efficacy-S-cm,efficacy,3603
FDA-CBER-2021-5683-1239491-1239580_27034_S1_M5_c4591001-ia efficacy-S-cm.csv,CMDOSFRQ,15,c4591001-ia efficacy-S-cm,efficacy,3603
FDA-CBER-2021-5683-1239491-1239580_27034_S1_M5_c4591001-ia efficacy-S-cm.csv,CMROUTE,16,c4591001-ia efficacy-S-cm,efficacy,3603
FDA-CBER-2021-5683-1239491-1239580_27034_S1_M5_c4591001-ia efficacy-S-cm.csv,EPOCH,17,c4591001-ia efficacy-S-cm,efficacy,3603
FDA-CBER-2021-5683-1239491-1239580_27034_S1_M5_c4591001-ia efficacy-S-cm.csv,CMSTDTC,18,c4591001-ia efficacy-S-cm,efficacy,3603
FDA-CBER-2021-5683-1239491-1239580_27034_S1_M5_c4591001-ia efficacy-S-cm.csv,CMENDTC,19,c4591001-ia efficacy-S-cm,efficacy,3603
FDA-CBER-2021-5683-1239491-1239580_27034_S1_M5_c4591001-ia efficacy-S-cm.csv,CMSTDY,20,c4591001-ia efficacy-S-cm,efficacy,3603
FDA-CBER-2021-5683-1239491-1239580_27034_S1_M5_c4591001-ia efficacy-S-cm.csv,CMENDY,21,c4591001-ia efficacy-S-cm,efficacy,3603
FDA-CBER-2021-5683-1239491-1239580_27034_S1_M5_c4591001-ia efficacy-S-cm.csv,CMENRTPT,22,c4591001-ia efficacy-S-cm,efficacy,3603
FDA-CBER-2021-5683-1239491-1239580_27034_S1_M5_c4591001-ia efficacy-S-cm.csv,CMENTPT,23,c4591001-ia efficacy-S-cm,efficacy,3603
FDA-CBER-2021-5683-1241596_27034_S1_M5_c4591001-ia efficacy-S-dd.csv,STUDYID,1,c4591001-ia efficacy-S-dd,efficacy,3
FDA-CBER-2021-5683-1241596_27034_S1_M5_c4591001-ia efficacy-S-dd.csv,DOMAIN,2,c4591001-ia efficacy-S-dd,efficacy,3
FDA-CBER-2021-5683-1241596_27034_S1_M5_c4591001-ia efficacy-S-dd.csv,USUBJID,3,c4591001-ia efficacy-S-dd,efficacy,3
FDA-CBER-2021-5683-1241596_27034_S1_M5_c4591001-ia efficacy-S-dd.csv,DDSEQ,4,c4591001-ia efficacy-S-dd,efficacy,3
FDA-CBER-2021-5683-1241596_27034_S1_M5_c4591001-ia efficacy-S-dd.csv,DDTESTCD,5,c4591001-ia efficacy-S-dd,efficacy,3
FDA-CBER-2021-5683-1241596_27034_S1_M5_c4591001-ia efficacy-S-dd.csv,DDTEST,6,c4591001-ia efficacy-S-dd,efficacy,3
FDA-CBER-2021-5683-1241596_27034_S1_M5_c4591001-ia efficacy-S-dd.csv,DDCAT,7,c4591001-ia efficacy-S-dd,efficacy,3
FDA-CBER-2021-5683-1241596_27034_S1_M5_c4591001-ia efficacy-S-dd.csv,DDORRES,8,c4591001-ia efficacy-S-dd,efficacy,3
FDA-CBER-2021-5683-1241596_27034_S1_M5_c4591001-ia efficacy-S-dd.csv,DDSTRESC,9,c4591001-ia efficacy-S-dd,efficacy,3
FDA-CBER-2021-5683-1241596_27034_S1_M5_c4591001-ia efficacy-S-dd.csv,DDEVAL,10,c4591001-ia efficacy-S-dd,efficacy,3
FDA-CBER-2021-5683-1241596_27034_S1_M5_c4591001-ia efficacy-S-dd.csv,EPOCH,11,c4591001-ia efficacy-S-dd,efficacy,3
FDA-CBER-2021-5683-1241596_27034_S1_M5_c4591001-ia efficacy-S-dd.csv,DDDTC,12,c4591001-ia efficacy-S-dd,efficacy,3
FDA-CBER-2021-5683-1241596_27034_S1_M5_c4591001-ia efficacy-S-dd.csv,DDDY,13,c4591001-ia efficacy-S-dd,efficacy,3
FDA-CBER-2021-5683-1241810_27034_S1_M5_c4591001-ia efficacy-S-di.csv,STUDYID,1,c4591001-ia efficacy-S-di,efficacy,60
FDA-CBER-2021-5683-1241810_27034_S1_M5_c4591001-ia efficacy-S-di.csv,DOMAIN,2,c4591001-ia efficacy-S-di,efficacy,60
FDA-CBER-2021-5683-1241810_27034_S1_M5_c4591001-ia efficacy-S-di.csv,SPDEVID,3,c4591001-ia efficacy-S-di,efficacy,60
FDA-CBER-2021-5683-1241810_27034_S1_M5_c4591001-ia efficacy-S-di.csv,DISEQ,4,c4591001-ia efficacy-S-di,efficacy,60
FDA-CBER-2021-5683-1241810_27034_S1_M5_c4591001-ia efficacy-S-di.csv,DIPARMCD,5,c4591001-ia efficacy-S-di,efficacy,60
FDA-CBER-2021-5683-1241810_27034_S1_M5_c4591001-ia efficacy-S-di.csv,DIPARM,6,c4591001-ia efficacy-S-di,efficacy,60
FDA-CBER-2021-5683-1241810_27034_S1_M5_c4591001-ia efficacy-S-di.csv,DIVAL,7,c4591001-ia efficacy-S-di,efficacy,60
FDA-CBER-2021-5683-1241811-1242893_27034_S1_M5_c4591001-ia efficacy-S-dm.csv,STUDYID,1,c4591001-ia efficacy-S-dm,efficacy,43331
FDA-CBER-2021-5683-1241811-1242893_27034_S1_M5_c4591001-ia efficacy-S-dm.csv,DOMAIN,2,c4591001-ia efficacy-S-dm,efficacy,43331
FDA-CBER-2021-5683-1241811-1242893_27034_S1_M5_c4591001-ia efficacy-S-dm.csv,USUBJID,3,c4591001-ia efficacy-S-dm,efficacy,43331
FDA-CBER-2021-5683-1241811-1242893_27034_S1_M5_c4591001-ia efficacy-S-dm.csv,SUBJID,4,c4591001-ia efficacy-S-dm,efficacy,43331
FDA-CBER-2021-5683-1241811-1242893_27034_S1_M5_c4591001-ia efficacy-S-dm.csv,RFSTDTC,5,c4591001-ia efficacy-S-dm,efficacy,43331
FDA-CBER-2021-5683-1241811-1242893_27034_S1_M5_c4591001-ia efficacy-S-dm.csv,RFENDTC,6,c4591001-ia efficacy-S-dm,efficacy,43331
FDA-CBER-2021-5683-1241811-1242893_27034_S1_M5_c4591001-ia efficacy-S-dm.csv,RFXSTDTC,7,c4591001-ia efficacy-S-dm,efficacy,43331
FDA-CBER-2021-5683-1241811-1242893_27034_S1_M5_c4591001-ia efficacy-S-dm.csv,RFXENDTC,8,c4591001-ia efficacy-S-dm,efficacy,43331
FDA-CBER-2021-5683-1241811-1242893_27034_S1_M5_c4591001-ia efficacy-S-dm.csv,RFICDTC,9,c4591001-ia efficacy-S-dm,efficacy,43331
FDA-CBER-2021-5683-1241811-1242893_27034_S1_M5_c4591001-ia efficacy-S-dm.csv,RFPENDTC,10,c4591001-ia efficacy-S-dm,efficacy,43331
FDA-CBER-2021-5683-1241811-1242893_27034_S1_M5_c4591001-ia efficacy-S-dm.csv,DTHDTC,11,c4591001-ia efficacy-S-dm,efficacy,43331
