{
  "fields": {
    "STUDYID": {
      "definition": "Unique study identifier",
      "comment": "ADSL",
      "section": "Study Identifiers",
      "mandatory": null,
      "codeList": null,
      "dataType": null,
      "domain": null,
      "origin": null
    },
    "USUBJID": {
      "definition": "Unique subject identifier within a study",
      "comment": "ADSL",
      "section": "Study Identifiers",
      "mandatory": null,
      "codeList": null,
      "dataType": null,
      "domain": null,
      "origin": null
    },
    "SUBJID": {
      "definition": "Subject identifier for the study",
      "comment": "ADSL",
      "section": "Study Identifiers",
      "mandatory": null,
      "codeList": null,
      "dataType": null,
      "domain": null,
      "origin": null
    },
    "SUBJIDN": {
      "definition": "Subject identifier (numeric)",
      "comment": null,
      "section": "Study Identifiers",
      "mandatory": null,
      "codeList": null,
      "dataType": null,
      "domain": null,
      "origin": null
    },
    "SITEID": {
      "definition": "Study site identifier",
      "comment": "ADSL",
      "section": "Study Identifiers",
      "mandatory": null,
      "codeList": null,
      "dataType": null,
      "domain": null,
      "origin": null
    },
    "INVID": {
      "definition": "Investigator identifier",
      "comment": null,
      "section": "Study Identifiers",
      "mandatory": null,
      "codeList": null,
      "dataType": null,
      "domain": null,
      "origin": null
    },
    "INVNAM": {
      "definition": "Investigator name",
      "comment": null,
      "section": "Study Identifiers",
      "mandatory": null,
      "codeList": null,
      "dataType": null,
      "domain": null,
      "origin": null
    },
    "COHORT": {
      "definition": "Cohort identifier",
      "comment": null,
      "section": "Subject Grouping Variables",
      "mandatory": null,
      "codeList": null,
      "dataType": null,
      "domain": null,
      "origin": null
    },
    "COHORTN": {
      "definition": "Cohort identifier (numeric)",
      "comment": null,
      "section": "Subject Grouping Variables",
      "mandatory": null,
      "codeList": null,
      "dataType": null,
      "domain": null,
      "origin": null
    },
    "GROUP": {
      "definition": "Group identifier",
      "comment": null,
      "section": "Subject Grouping Variables",
      "mandatory": null,
      "codeList": null,
      "dataType": null,
      "domain": null,
      "origin": null
    },
    "GROUPN": {
      "definition": "Group identifier (numeric)",
      "comment": null,
      "section": "Subject Grouping Variables",
      "mandatory": null,
      "codeList": null,
      "dataType": null,
      "domain": null,
      "origin": null
    },
    "ARM": {
      "definition": "Description of planned treatment arm (BNT162b[n] Phase and dose or Placebo, or null)",
      "comment": null,
      "section": "Subject Grouping Variables",
      "mandatory": null,
      "codeList": null,
      "dataType": null,
      "domain": null,
      "origin": null
    },
    "ARMCD": {
      "definition": "Planned arm code",
      "comment": null,
      "section": "Subject Grouping Variables",
      "mandatory": null,
      "codeList": null,
      "dataType": null,
      "domain": null,
      "origin": null
    },
    "ACTATRTSDTRM": {
      "definition": "Description of actual treatment arm",
      "comment": null,
      "section": "Subject Grouping Variables",
      "mandatory": null,
      "codeList": null,
      "dataType": null,
      "domain": null,
      "origin": null
    },
    "ACTARMCD": {
      "definition": "Actual treatment arm code",
      "comment": null,
      "section": "Subject Grouping Variables",
      "mandatory": null,
      "codeList": null,
      "dataType": null,
      "domain": null,
      "origin": null
    },
    "TRTP": {
      "definition": "Planned treatment",
      "comment": null,
      "section": "Treatment Variables",
      "mandatory": null,
      "codeList": null,
      "dataType": null,
      "domain": null,
      "origin": null
    },
    "TRTPN": {
      "definition": "Planned treatment (numeric)",
      "comment": null,
      "section": "Treatment Variables",
      "mandatory": null,
      "codeList": null,
      "dataType": null,
      "domain": null,
      "origin": null
    },
    "TRTA": {
      "definition": "Actual treatment",
      "comment": null,
      "section": "Treatment Variables",
      "mandatory": null,
      "codeList": null,
      "dataType": null,
      "domain": null,
      "origin": null
    },
    "TRTAN": {
      "definition": "Actual treatment (numeric)",
      "comment": null,
      "section": "Treatment Variables",
      "mandatory": null,
      "codeList": null,
      "dataType": null,
      "domain": null,
      "origin": null
    },
    "TRT01P": {
      "definition": "Planned treatment for period 01",
      "comment": null,
      "section": "Treatment Variables",
      "mandatory": null,
      "codeList": null,
      "dataType": null,
      "domain": null,
      "origin": null
    },
    "TRT01PN": {
      "definition": "Planned treatment for period 01 (numeric)",
      "comment": null,
      "section": "Treatment Variables",
      "mandatory": null,
      "codeList": null,
      "dataType": null,
      "domain": null,
      "origin": null
    },
    "TRT01A": {
      "definition": "Actual treatment for period 01 (BNT162b[n] Phase and dose or Placebo, or null)",
      "comment": null,
      "section": "Treatment Variables",
      "mandatory": null,
      "codeList": null,
      "dataType": null,
      "domain": null,
      "origin": null
    },
    "TRT01AN": {
      "definition": "Actual treatment for period 01 (numeric)",
      "comment": null,
      "section": "Treatment Variables",
      "mandatory": null,
      "codeList": null,
      "dataType": null,
      "domain": null,
      "origin": null
    },
    "TRTAR": {
      "definition": "*Treatment arm",
      "comment": "uncertain - possibly actual treatment arm",
      "section": "Treatment Variables",
      "mandatory": null,
      "codeList": null,
      "dataType": null,
      "domain": null,
      "origin": null
    },
    "TRTARN": {
      "definition": "Treatment arm (numeric)",
      "comment": null,
      "section": "Treatment Variables",
      "mandatory": null,
      "codeList": null,
      "dataType": null,
      "domain": null,
      "origin": null
    },
    "TRTPR": {
      "definition": "Treatment planned",
      "comment": "https://pharmasug.org/proceedings/2016/DS/PharmaSUG-2016-DS14.pdf",
      "section": "Treatment Variables",
      "mandatory": null,
      "codeList": null,
      "dataType": null,
      "domain": null,
      "origin": null
    },
    "TRTPRN": {
      "definition": "Treatment planned (numeric)",
      "comment": null,
      "section": "Treatment Variables",
      "mandatory": null,
      "codeList": null,
      "dataType": null,
      "domain": null,
      "origin": null
    },
    "TRTSDT": {
      "definition": "Date of first exposure to treatment",
      "comment": null,
      "section": "Treatment Variables",
      "mandatory": null,
      "codeList": null,
      "dataType": null,
      "domain": null,
      "origin": null
    },
    "TRTSTM": {
      "definition": "Time of first exposure to treatment",
      "comment": null,
      "section": "Treatment Variables",
      "mandatory": null,
      "codeList": null,
      "dataType": null,
      "domain": null,
      "origin": null
    },
    "TRTSDTM": {
      "definition": "Datetime of first exposure to treatment",
      "comment": null,
      "section": "Treatment Variables",
      "mandatory": null,
      "codeList": null,
      "dataType": null,
      "domain": null,
      "origin": null
    },
    "TRTEDT": {
      "definition": "Date of last exposure to treatment",
      "comment": null,
      "section": "Treatment Variables",
      "mandatory": null,
      "codeList": null,
      "dataType": null,
      "domain": null,
      "origin": null
    },
    "TRTETM": {
      "definition": "Time of last exposure to treatment",
      "comment": null,
      "section": "Treatment Variables",
      "mandatory": null,
      "codeList": null,
      "dataType": null,
      "domain": null,
      "origin": null
    },
    "TRTEDTM": {
      "definition": "Datetime of last exposure to treatment",
      "comment": null,
      "section": "Treatment Variables",
      "mandatory": null,
      "codeList": null,
      "dataType": null,
      "domain": null,
      "origin": null
    },
    "AESEQ": {
      "definition": "Sequence number for adverse event",
      "comment": null,
      "section": "Adverse Event Variables",
      "mandatory": null,
      "codeList": null,
      "dataType": null,
      "domain": null,
      "origin": null
    },
    "AEGRPID": {
      "definition": "Adverse event group identifier",
      "comment": null,
      "section": "Adverse Event Variables",
      "mandatory": null,
      "codeList": null,
      "dataType": null,
      "domain": null,
      "origin": null
    },
    "AESPID": {
      "definition": "Adverse event sponsor-defined identifier",
      "comment": null,
      "section": "Adverse Event Variables",
      "mandatory": null,
      "codeList": null,
      "dataType": null,
      "domain": null,
      "origin": null
    },
    "AETERM": {
      "definition": "Reported term for the adverse event (The verbatim term of the AE as reported by the investigator)",
      "comment": null,
      "section": "Adverse Event Variables",
      "mandatory": null,
      "codeList": null,
      "dataType": null,
      "domain": null,
      "origin": null
    },
    "AEMODIFY": {
      "definition": "Modified reported term",
      "comment": null,
      "section": "Adverse Event Variables",
      "mandatory": null,
      "codeList": null,
      "dataType": null,
      "domain": null,
      "origin": null
    },
    "AELLT": {
      "definition": "Lowest level term (MedDRA)",
      "comment": null,
      "section": "Adverse Event Variables",
      "mandatory": null,
      "codeList": null,
      "dataType": null,
      "domain": null,
      "origin": null
    },
    "AELLTCD": {
      "definition": "Lowest level term code  (MedDRA) (numeric)",
      "comment": null,
      "section": "Adverse Event Variables",
      "mandatory": null,
      "codeList": null,
      "dataType": null,
      "domain": null,
      "origin": null
    },
    "AEDECOD": {
      "definition": "Dictionary-derived term (MedDRA Preferred Term (PT) )",
      "comment": null,
      "section": "Adverse Event Variables",
      "mandatory": null,
      "codeList": null,
      "dataType": null,
      "domain": null,
      "origin": null
    },
    "AEPTCD": {
      "definition": "Preferred term code (MedDRA) (numeric)",
      "comment": null,
      "section": "Adverse Event Variables",
      "mandatory": null,
      "codeList": null,
      "dataType": null,
      "domain": null,
      "origin": null
    },
    "AEHLT": {
      "definition": "High level term (MedDRA)",
      "comment": null,
      "section": "Adverse Event Variables",
      "mandatory": null,
      "codeList": null,
      "dataType": null,
      "domain": null,
      "origin": null
    },
    "AEHLTCD": {
      "definition": "High level term code",
      "comment": null,
      "section": "Adverse Event Variables",
      "mandatory": null,
      "codeList": null,
      "dataType": null,
      "domain": null,
      "origin": null
    },
    "AEHLGT": {
      "definition": "High level group term (MedDRA)",
      "comment": null,
      "section": "Adverse Event Variables",
      "mandatory": null,
      "codeList": null,
      "dataType": null,
      "domain": null,
      "origin": null
    },
    "AEHLGTCD": {
      "definition": "High level group term code",
      "comment": null,
      "section": "Adverse Event Variables",
      "mandatory": null,
      "codeList": null,
      "dataType": null,
      "domain": null,
      "origin": null
    },
    "AECAT": {
      "definition": "Category for adverse event (Adverse Event/Reactogenicity/Medication Error/General)",
      "comment": null,
      "section": "Adverse Event Variables",
      "mandatory": null,
      "codeList": null,
      "dataType": null,
      "domain": null,
      "origin": null
    },
    "AEBODSYS": {
      "definition": "Body system or organ class (The primary MedDRA System Organ Class (SOC) for the AE)",
      "comment": null,
      "section": "Adverse Event Variables",
      "mandatory": null,
      "codeList": null,
      "dataType": null,
      "domain": null,
      "origin": null
    },
    "AEBDSYCD": {
      "definition": "Body system or organ class code",
      "comment": null,
      "section": "Adverse Event Variables",
      "mandatory": null,
      "codeList": null,
      "dataType": null,
      "domain": null,
      "origin": null
    },
    "AESOC": {
      "definition": "Primary system organ class (MedDRA)",
      "comment": null,
      "section": "Adverse Event Variables",
      "mandatory": null,
      "codeList": null,
      "dataType": null,
      "domain": null,
      "origin": null
    },
    "AESOCCD": {
      "definition": "System organ class code",
      "comment": null,
      "section": "Adverse Event Variables",
      "mandatory": null,
      "codeList": null,
      "dataType": null,
      "domain": null,
      "origin": null
    },
    "AESEV": {
      "definition": "Severity/intensity of adverse event (Mild/Moderate/Severe/null)",
      "comment": null,
      "section": "Adverse Event Variables",
      "mandatory": null,
      "codeList": null,
      "dataType": null,
      "domain": null,
      "origin": null
    },
    "AETOXGR": {
      "definition": "Standard toxicity grade (NCI CTCAE)",
      "comment": null,
      "section": "Adverse Event Variables",
      "mandatory": null,
      "codeList": null,
      "dataType": null,
      "domain": null,
      "origin": null
    },
    "AETOXGRN": {
      "definition": "Standard toxicity grade (numeric)",
      "comment": null,
      "section": "Adverse Event Variables",
      "mandatory": null,
      "codeList": null,
      "dataType": null,
      "domain": null,
      "origin": null
    },
    "ASEV": {
      "definition": "Seeking more detail on this severity field (Mild/Moderate/Severe Does not match count of AESEV, which includes null values. Possibly adjusted severity",
      "comment": "Not calculated in release SAS code",
      "section": "Adverse Event Variables",
      "mandatory": null,
      "codeList": null,
      "dataType": null,
      "domain": null,
      "origin": null
    },
    "ASEVN": {
      "definition": "Analysis severity (numeric) (1/2/3)",
      "comment": null,
      "section": "Adverse Event Variables",
      "mandatory": null,
      "codeList": null,
      "dataType": null,
      "domain": null,
      "origin": null
    },
    "AESER": {
      "definition": "Serious adverse event (Y/N)",
      "comment": null,
      "section": "Adverse Event Variables",
      "mandatory": null,
      "codeList": null,
      "dataType": null,
      "domain": null,
      "origin": null
    },
    "AESERN": {
      "definition": "Serious adverse event (numeric: 1=Y, 0=N)",
      "comment": null,
      "section": "Adverse Event Variables",
      "mandatory": null,
      "codeList": null,
      "dataType": null,
      "domain": null,
      "origin": null
    },
    "AEACN": {
      "definition": "Action taken with study treatment",
      "comment": null,
      "section": "Adverse Event Variables",
      "mandatory": null,
      "codeList": null,
      "dataType": null,
      "domain": null,
      "origin": null
    },
    "AACN": {
      "definition": "*Analysis action taken",
      "comment": "uncertain",
      "section": "Adverse Event Variables",
      "mandatory": null,
      "codeList": null,
      "dataType": null,
      "domain": null,
      "origin": null
    },
    "AACNN": {
      "definition": "Analysis action taken (numeric)",
      "comment": null,
      "section": "Adverse Event Variables",
      "mandatory": null,
      "codeList": null,
      "dataType": null,
      "domain": null,
      "origin": null
    },
    "AREL": {
      "definition": "Derived/standardized causality for AE",
      "comment": "review",
      "section": "Adverse Event Variables",
      "mandatory": null,
      "codeList": null,
      "dataType": null,
      "domain": null,
      "origin": null
    },
    "ARELN": {
      "definition": "Derived/standardized causality (numeric)",
      "comment": null,
      "section": "Adverse Event Variables",
      "mandatory": null,
      "codeList": null,
      "dataType": null,
      "domain": null,
      "origin": null
    },
    "AERELN": {
      "definition": "Relationship to treatment (numeric)",
      "comment": null,
      "section": "Adverse Event Variables",
      "mandatory": null,
      "codeList": null,
      "dataType": null,
      "domain": null,
      "origin": null
    },
    "AERELNST": {
      "definition": "Relationship to non-study treatment",
      "comment": null,
      "section": "Adverse Event Variables",
      "mandatory": null,
      "codeList": null,
      "dataType": null,
      "domain": null,
      "origin": null
    },
    "AERELTXT": {
      "definition": "Relationship to treatment text",
      "comment": null,
      "section": "Adverse Event Variables",
      "mandatory": null,
      "codeList": null,
      "dataType": null,
      "domain": null,
      "origin": null
    },
    "AEOUT": {
      "definition": "Outcome of adverse event",
      "comment": null,
      "section": "Adverse Event Variables",
      "mandatory": null,
      "codeList": null,
      "dataType": null,
      "domain": null,
      "origin": null
    },
    "AOUT": {
      "definition": "Outcome",
      "comment": "https://pharmasug.org/proceedings/2016/IB/PharmaSUG-2016-IB11.pdf",
      "section": "Adverse Event Variables",
      "mandatory": null,
      "codeList": null,
      "dataType": null,
      "domain": null,
      "origin": null
    },
    "AOUTN": {
      "definition": "Outcome (numeric)",
      "comment": null,
      "section": "Adverse Event Variables",
      "mandatory": null,
      "codeList": null,
      "dataType": null,
      "domain": null,
      "origin": null
    },
    "AESCONG": {
      "definition": "Congenital anomaly or birth defect",
      "comment": null,
      "section": "Adverse Event Variables",
      "mandatory": null,
      "codeList": null,
      "dataType": null,
      "domain": null,
      "origin": null
    },
    "AESDISAB": {
      "definition": "Persistent or significant disability",
      "comment": null,
      "section": "Adverse Event Variables",
      "mandatory": null,
      "codeList": null,
      "dataType": null,
      "domain": null,
      "origin": null
    },
    "AESDTH": {
      "definition": "Results in death",
      "comment": null,
      "section": "Adverse Event Variables",
      "mandatory": null,
      "codeList": null,
      "dataType": null,
      "domain": null,
      "origin": null
    },
    "AESHOSP": {
      "definition": "Requires or prolongs hospitalization",
      "comment": null,
      "section": "Adverse Event Variables",
      "mandatory": null,
      "codeList": null,
      "dataType": null,
      "domain": null,
      "origin": null
    },
    "AESLIFE": {
      "definition": "Is life threatening",
      "comment": null,
      "section": "Adverse Event Variables",
      "mandatory": null,
      "codeList": null,
      "dataType": null,
      "domain": null,
      "origin": null
    },
    "AESMIE": {
      "definition": "Is a medically important event",
      "comment": null,
      "section": "Adverse Event Variables",
      "mandatory": null,
      "codeList": null,
      "dataType": null,
      "domain": null,
      "origin": null
    },
    "AECONTRT": {
      "definition": "Concomitant or additional treatment given",
      "comment": null,
      "section": "Adverse Event Variables",
      "mandatory": null,
      "codeList": null,
      "dataType": null,
      "domain": null,
      "origin": null
    },
    "AETRTEM": {
      "definition": "Treatment emergent flag",
      "comment": null,
      "section": "Adverse Event Variables",
      "mandatory": null,
      "codeList": null,
      "dataType": null,
      "domain": null,
      "origin": null
    },
    "AEDLT": {
      "definition": "Dose limiting toxicity",
      "comment": null,
      "section": "Adverse Event Variables",
      "mandatory": null,
      "codeList": null,
      "dataType": null,
      "domain": null,
      "origin": null
    },
    "AEEPRELI": {
      "definition": "Epi/Pandemic Related Indicator - cause of the AE is or is not due to COVID-1",
      "comment": "https://globalforum.diaglobal.org/issue/june-2020/data-handling-and-reporting-for-ongoing-clinical-trials-during-covid-19/",
      "section": "Adverse Event Variables",
      "mandatory": null,
      "codeList": null,
      "dataType": null,
      "domain": null,
      "origin": null
    },
    "AEEMREL": {
      "definition": "*Emergency related",
      "comment": "uncertain",
      "section": "Adverse Event Variables",
      "mandatory": null,
      "codeList": null,
      "dataType": null,
      "domain": null,
      "origin": null
    },
    "AEEMS": {
      "definition": "Severe or life-threatening treatment-emergent adverse event flag",
      "comment": "https://phmpt.org/wp-content/uploads/2022/05/125742_S1_M5_bnt162-01-A-adrg.pdf, https://phmpt.org/wp-content/uploads/2022/05/125742_S1_M5_bnt162-01-A-adrg.pdf",
      "section": "Adverse Event Variables",
      "mandatory": null,
      "codeList": null,
      "dataType": null,
      "domain": null,
      "origin": null
    },
    "AEEMSREL": {
      "definition": "Treatment emergent severe related AE",
      "comment": null,
      "section": "Adverse Event Variables",
      "mandatory": null,
      "codeList": null,
      "dataType": null,
      "domain": null,
      "origin": null
    },
    "AEEMSER": {
      "definition": "Serious treatment emergent AE",
      "comment": null,
      "section": "Adverse Event Variables",
      "mandatory": null,
      "codeList": null,
      "dataType": null,
      "domain": null,
      "origin": null
    },
    "AEEMSERR": {
      "definition": "Serious treatment emergent related AE",
      "comment": null,
      "section": "Adverse Event Variables",
      "mandatory": null,
      "codeList": null,
      "dataType": null,
      "domain": null,
      "origin": null
    },
    "PTDIAFL": {
      "definition": "Preferred Term based on diary entry",
      "comment": "https://phmpt.org/wp-content/uploads/2022/05/125742_S1_M5_bnt162-01-A-adrg.pdf",
      "section": "Adverse Event Variables",
      "mandatory": null,
      "codeList": null,
      "dataType": null,
      "domain": null,
      "origin": null
    },
    "AESTDTC": {
      "definition": "Start date/time of adverse event",
      "comment": null,
      "section": "Adverse Event Variables",
      "mandatory": null,
      "codeList": null,
      "dataType": null,
      "domain": null,
      "origin": null
    },
    "AEENDTC": {
      "definition": "End date/time of adverse event",
      "comment": null,
      "section": "Adverse Event Variables",
      "mandatory": null,
      "codeList": null,
      "dataType": null,
      "domain": null,
      "origin": null
    },
    "ASTDT": {
      "definition": "Analysis start date",
      "comment": null,
      "section": "Adverse Event Variables",
      "mandatory": null,
      "codeList": null,
      "dataType": null,
      "domain": null,
      "origin": null
    },
    "ASTTM": {
      "definition": "Analysis start time",
      "comment": null,
      "section": "Adverse Event Variables",
      "mandatory": null,
      "codeList": null,
      "dataType": null,
      "domain": null,
      "origin": null
    },
    "ASTDTM": {
      "definition": "Analysis start datetime",
      "comment": null,
      "section": "Adverse Event Variables",
      "mandatory": null,
      "codeList": null,
      "dataType": null,
      "domain": null,
      "origin": null
    },
    "AENDT": {
      "definition": "Analysis end date",
      "comment": null,
      "section": "Adverse Event Variables",
      "mandatory": null,
      "codeList": null,
      "dataType": null,
      "domain": null,
      "origin": null
    },
    "AENTM": {
      "definition": "Analysis end time",
      "comment": null,
      "section": "Adverse Event Variables",
      "mandatory": null,
      "codeList": null,
      "dataType": null,
      "domain": null,
      "origin": null
    },
    "AENDTM": {
      "definition": "Analysis end datetime",
      "comment": null,
      "section": "Adverse Event Variables",
      "mandatory": null,
      "codeList": null,
      "dataType": null,
      "domain": null,
      "origin": null
    },
    "AESTDY": {
      "definition": "Study day of start of adverse event",
      "comment": null,
      "section": "Adverse Event Variables",
      "mandatory": null,
      "codeList": null,
      "dataType": null,
      "domain": null,
      "origin": null
    },
    "ASTDY": {
      "definition": "Day of AE start/end relative to a reference date ",
      "comment": null,
      "section": "Adverse Event Variables",
      "mandatory": null,
      "codeList": null,
      "dataType": null,
      "domain": null,
      "origin": null
    },
    "AEENDY": {
      "definition": "Study day of end of adverse event",
      "comment": null,
      "section": "Adverse Event Variables",
      "mandatory": null,
      "codeList": null,
      "dataType": null,
      "domain": null,
      "origin": null
    },
    "AENDY": {
      "definition": "Analysis end relative day",
      "comment": null,
      "section": "Adverse Event Variables",
      "mandatory": null,
      "codeList": null,
      "dataType": null,
      "domain": null,
      "origin": null
    },
    "ADURN": {
      "definition": "AE Duration",
      "comment": "https://pharmasug.org/proceedings/2016/IB/PharmaSUG-2016-IB11.pdf",
      "section": "Adverse Event Variables",
      "mandatory": null,
      "codeList": null,
      "dataType": null,
      "domain": null,
      "origin": null
    },
    "ADURU": {
      "definition": "Analysis duration units",
      "comment": null,
      "section": "Adverse Event Variables",
      "mandatory": null,
      "codeList": null,
      "dataType": null,
      "domain": null,
      "origin": null
    },
    "LSTDD": {
      "definition": "Days since last dose ",
      "comment": null,
      "section": "Adverse Event Variables",
      "mandatory": null,
      "codeList": null,
      "dataType": null,
      "domain": null,
      "origin": null
    },
    "AEENRTPT": {
      "definition": "End reference time point",
      "comment": null,
      "section": "Adverse Event Variables",
      "mandatory": null,
      "codeList": null,
      "dataType": null,
      "domain": null,
      "origin": null
    },
    "AEENTPT": {
      "definition": "End time point",
      "comment": null,
      "section": "Adverse Event Variables",
      "mandatory": null,
      "codeList": null,
      "dataType": null,
      "domain": null,
      "origin": null
    },
    "TRTEMFL": {
      "definition": "Treatment emergent analysis flag",
      "comment": null,
      "section": "Adverse Event Variables",
      "mandatory": null,
      "codeList": null,
      "dataType": null,
      "domain": null,
      "origin": null
    },
    "TMINT1FL": {
      "definition": "*Time interval 1 flag",
      "comment": "uncertain - possibly treatment period flags",
      "section": "Adverse Event Variables",
      "mandatory": null,
      "codeList": null,
      "dataType": null,
      "domain": null,
      "origin": null
    },
    "TMINT2FL": {
      "definition": "*Time interval 2 flag",
      "comment": null,
      "section": "Adverse Event Variables",
      "mandatory": null,
      "codeList": null,
      "dataType": null,
      "domain": null,
      "origin": null
    },
    "TMINT3FL": {
      "definition": "*Time interval 3 flag",
      "comment": null,
      "section": "Adverse Event Variables",
      "mandatory": null,
      "codeList": null,
      "dataType": null,
      "domain": null,
      "origin": null
    },
    "TMINT4FL": {
      "definition": "*Time interval 4 flag",
      "comment": null,
      "section": "Adverse Event Variables",
      "mandatory": null,
      "codeList": null,
      "dataType": null,
      "domain": null,
      "origin": null
    },
    "TMINT5FL": {
      "definition": "*Time interval 5 flag",
      "comment": null,
      "section": "Adverse Event Variables",
      "mandatory": null,
      "codeList": null,
      "dataType": null,
      "domain": null,
      "origin": null
    },
    "EPOCH": {
      "definition": "Epoch of the observation",
      "comment": null,
      "section": "Adverse Event Variables",
      "mandatory": null,
      "codeList": null,
      "dataType": null,
      "domain": null,
      "origin": null
    },
    "AEREFID": {
      "definition": "Adverse event reference ID",
      "comment": null,
      "section": "Adverse Event Variables",
      "mandatory": null,
      "codeList": null,
      "dataType": null,
      "domain": null,
      "origin": null
    },
    "AELNKGRP": {
      "definition": "Adverse event link group",
      "comment": null,
      "section": "Adverse Event Variables",
      "mandatory": null,
      "codeList": null,
      "dataType": null,
      "domain": null,
      "origin": null
    },
    "AESCAT": {
      "definition": "Adverse event subcategory (\"Systemic\",\"Acute reactions\",\"Local reactions\",\"null\")",
      "comment": null,
      "section": "Adverse Event Variables",
      "mandatory": null,
      "codeList": null,
      "dataType": null,
      "domain": null,
      "origin": null
    },
    "AEPRESP": {
      "definition": "Adverse event pre-specified",
      "comment": null,
      "section": "Adverse Event Variables",
      "mandatory": null,
      "codeList": null,
      "dataType": null,
      "domain": null,
      "origin": null
    },
    "AELOC": {
      "definition": "Location of adverse event",
      "comment": null,
      "section": "Adverse Event Variables",
      "mandatory": null,
      "codeList": null,
      "dataType": null,
      "domain": null,
      "origin": null
    },
    "AELAT": {
      "definition": "Laterality of adverse event",
      "comment": null,
      "section": "Adverse Event Variables",
      "mandatory": null,
      "codeList": null,
      "dataType": null,
      "domain": null,
      "origin": null
    },
    "AEDUR": {
      "definition": "Duration of adverse event",
      "comment": null,
      "section": "Adverse Event Variables",
      "mandatory": null,
      "codeList": null,
      "dataType": null,
      "domain": null,
      "origin": null
    },
    "AETPTREF": {
      "definition": "Adverse event time point reference",
      "comment": null,
      "section": "Adverse Event Variables",
      "mandatory": null,
      "codeList": null,
      "dataType": null,
      "domain": null,
      "origin": null
    },
    "AERFTDTC": {
      "definition": "Adverse event reference date/time",
      "comment": null,
      "section": "Adverse Event Variables",
      "mandatory": null,
      "codeList": null,
      "dataType": null,
      "domain": null,
      "origin": null
    },
    "ADESFL": {
      "definition": "A derived flag (\\'Y\\'/\\'N\\') indicating if the subject discontinued the study drug due to the AE",
      "comment": null,
      "section": "Adverse Event Variables",
      "mandatory": null,
      "codeList": null,
      "dataType": null,
      "domain": null,
      "origin": null
    },
    "ASTDTF": {
      "definition": "Analysis start date imputation flag",
      "comment": null,
      "section": "Adverse Event Variables",
      "mandatory": null,
      "codeList": null,
      "dataType": null,
      "domain": null,
      "origin": null
    },
    "AEMERES": {
      "definition": "*Medical review result",
      "comment": "uncertain",
      "section": "Adverse Event Variables",
      "mandatory": null,
      "codeList": null,
      "dataType": null,
      "domain": null,
      "origin": null
    },
    "AECMGIV": {
      "definition": "Concomitant medication given",
      "comment": null,
      "section": "Adverse Event Variables",
      "mandatory": null,
      "codeList": null,
      "dataType": null,
      "domain": null,
      "origin": null
    },
    "AENDGIV": {
      "definition": "*End treatment given",
      "comment": "uncertain",
      "section": "Adverse Event Variables",
      "mandatory": null,
      "codeList": null,
      "dataType": null,
      "domain": null,
      "origin": null
    },
    "AESUBJDC": {
      "definition": "*Subject decision",
      "comment": "uncertain",
      "section": "Adverse Event Variables",
      "mandatory": null,
      "codeList": null,
      "dataType": null,
      "domain": null,
      "origin": null
    },
    "ATOXGR": {
      "definition": "Analysis toxicity grade(GRADE 1,2,3,4, null)",
      "comment": null,
      "section": "Adverse Event Variables",
      "mandatory": null,
      "codeList": null,
      "dataType": null,
      "domain": null,
      "origin": null
    },
    "ATOXGRN": {
      "definition": "Analysis toxicity grade (numeric)",
      "comment": null,
      "section": "Adverse Event Variables",
      "mandatory": null,
      "codeList": null,
      "dataType": null,
      "domain": null,
      "origin": null
    },
    "AEMEFL": {
      "definition": "*Medically significant event flag",
      "comment": "uncertain",
      "section": "Adverse Event Variables",
      "mandatory": null,
      "codeList": null,
      "dataType": null,
      "domain": null,
      "origin": null
    },
    "AETPDOS": {
      "definition": "*Time post dose",
      "comment": "uncertain",
      "section": "Adverse Event Variables",
      "mandatory": null,
      "codeList": null,
      "dataType": null,
      "domain": null,
      "origin": null
    },
    "AEIMMFL": {
      "definition": "Immune-related adverse event flag",
      "comment": null,
      "section": "Adverse Event Variables",
      "mandatory": null,
      "codeList": null,
      "dataType": null,
      "domain": null,
      "origin": null
    },
    "APERIOD": {
      "definition": "Analysis period",
      "comment": null,
      "section": "Adverse Event Variables",
      "mandatory": null,
      "codeList": null,
      "dataType": null,
      "domain": null,
      "origin": null
    },
    "APERIODC": {
      "definition": "Analysis period code",
      "comment": null,
      "section": "Adverse Event Variables",
      "mandatory": null,
      "codeList": null,
      "dataType": null,
      "domain": null,
      "origin": null
    },
    "APERSDT": {
      "definition": "Analysis period start date",
      "comment": null,
      "section": "Adverse Event Variables",
      "mandatory": null,
      "codeList": null,
      "dataType": null,
      "domain": null,
      "origin": null
    },
    "APERSTM": {
      "definition": "Analysis period start time",
      "comment": null,
      "section": "Adverse Event Variables",
      "mandatory": null,
      "codeList": null,
      "dataType": null,
      "domain": null,
      "origin": null
    },
    "APERSDTM": {
      "definition": "Analysis period start datetime",
      "comment": null,
      "section": "Adverse Event Variables",
      "mandatory": null,
      "codeList": null,
      "dataType": null,
      "domain": null,
      "origin": null
    },
    "APEREDT": {
      "definition": "Analysis period end date",
      "comment": null,
      "section": "Adverse Event Variables",
      "mandatory": null,
      "codeList": null,
      "dataType": null,
      "domain": null,
      "origin": null
    },
    "APERETM": {
      "definition": "Analysis period end time",
      "comment": null,
      "section": "Adverse Event Variables",
      "mandatory": null,
      "codeList": null,
      "dataType": null,
      "domain": null,
      "origin": null
    },
    "APEREDTM": {
      "definition": "Analysis period end datetime",
      "comment": null,
      "section": "Adverse Event Variables",
      "mandatory": null,
      "codeList": null,
      "dataType": null,
      "domain": null,
      "origin": null
    },
    "AEELTM": {
      "definition": "*Adverse event planned elapsed time from time point ref",
      "comment": "uncertain",
      "section": "Adverse Event Variables",
      "mandatory": null,
      "codeList": null,
      "dataType": null,
      "domain": null,
      "origin": null
    },
    "AENDTF": {
      "definition": "Analysis end imputation date time flag",
      "comment": "https://pharmasug.org/proceedings/2016/IB/PharmaSUG-2016-IB11.pdf",
      "section": "Adverse Event Variables",
      "mandatory": null,
      "codeList": null,
      "dataType": null,
      "domain": null,
      "origin": null
    },
    "VPHASE": {
      "definition": "Derived phase of the study when the AE occurred",
      "comment": null,
      "section": "Adverse Event Variables",
      "mandatory": null,
      "codeList": null,
      "dataType": null,
      "domain": null,
      "origin": null
    },
    "VPHASEN": {
      "definition": "Derived phase of the study when the AE occurred\" (numeric)",
      "comment": null,
      "section": "Adverse Event Variables",
      "mandatory": null,
      "codeList": null,
      "dataType": null,
      "domain": null,
      "origin": null
    },
    "AGEGR1": {
      "definition": "Pooled age group 1 (12-15, 16-55, 18-55, 65-85, >55 years)",
      "comment": null,
      "section": "Age Group Variables",
      "mandatory": null,
      "codeList": null,
      "dataType": null,
      "domain": null,
      "origin": null
    },
    "AGEGR1N": {
      "definition": "Pooled age group 1 (numeric)",
      "comment": null,
      "section": "Age Group Variables",
      "mandatory": null,
      "codeList": null,
      "dataType": null,
      "domain": null,
      "origin": null
    },
    "AGEGR2": {
      "definition": "Pooled age group 2 (<65, >=65 years)",
      "comment": null,
      "section": "Age Group Variables",
      "mandatory": null,
      "codeList": null,
      "dataType": null,
      "domain": null,
      "origin": null
    },
    "AGEGR2N": {
      "definition": "Pooled age group 2 (numeric)",
      "comment": null,
      "section": "Age Group Variables",
      "mandatory": null,
      "codeList": null,
      "dataType": null,
      "domain": null,
      "origin": null
    },
    "AGEGR3": {
      "definition": "Pooled age group 3 (16-17, 18-55, >55 years)",
      "comment": null,
      "section": "Age Group Variables",
      "mandatory": null,
      "codeList": null,
      "dataType": null,
      "domain": null,
      "origin": null
    },
    "AGEGR3N": {
      "definition": "Pooled age group 3 (numeric)",
      "comment": null,
      "section": "Age Group Variables",
      "mandatory": null,
      "codeList": null,
      "dataType": null,
      "domain": null,
      "origin": null
    },
    "AGE": {
      "definition": "Age of Subject",
      "comment": "ADSL",
      "section": "Demographics Variables",
      "mandatory": null,
      "codeList": null,
      "dataType": null,
      "domain": null,
      "origin": null
    },
    "AGEU": {
      "definition": "Age units (YEARS, MONTHS, WEEKS, DAYS)",
      "comment": null,
      "section": "Demographics Variables",
      "mandatory": null,
      "codeList": null,
      "dataType": null,
      "domain": null,
      "origin": null
    },
    "AGE_M": {
      "definition": "Age in months",
      "comment": null,
      "section": "Demographics Variables",
      "mandatory": null,
      "codeList": null,
      "dataType": null,
      "domain": null,
      "origin": null
    },
    "AAGE": {
      "definition": "Analysis age (calculated at enrollment)",
      "comment": null,
      "section": "Demographics Variables",
      "mandatory": null,
      "codeList": null,
      "dataType": null,
      "domain": null,
      "origin": null
    },
    "AGETR01": {
      "definition": "Age at Dose 1",
      "comment": null,
      "section": "Demographics Variables",
      "mandatory": null,
      "codeList": null,
      "dataType": null,
      "domain": null,
      "origin": null
    },
    "AGETRU01": {
      "definition": "Age units at treatment start",
      "comment": null,
      "section": "Demographics Variables",
      "mandatory": null,
      "codeList": null,
      "dataType": null,
      "domain": null,
      "origin": null
    },
    "SEX": {
      "definition": "Sex of subject (M/F)",
      "comment": null,
      "section": "Demographics Variables",
      "mandatory": null,
      "codeList": null,
      "dataType": null,
      "domain": null,
      "origin": null
    },
    "SEXN": {
      "definition": "Sex of subject (numeric: 1=M, 2=F)",
      "comment": null,
      "section": "Demographics Variables",
      "mandatory": null,
      "codeList": null,
      "dataType": null,
      "domain": null,
      "origin": null
    },
    "RACE": {
      "definition": "Race of subject",
      "comment": null,
      "section": "Demographics Variables",
      "mandatory": null,
      "codeList": null,
      "dataType": null,
      "domain": null,
      "origin": null
    },
    "RACEN": {
      "definition": "Race of subject (numeric)",
      "comment": null,
      "section": "Demographics Variables",
      "mandatory": null,
      "codeList": null,
      "dataType": null,
      "domain": null,
      "origin": null
    },
    "RACEOTH": {
      "definition": "Other race specification",
      "comment": null,
      "section": "Demographics Variables",
      "mandatory": null,
      "codeList": null,
      "dataType": null,
      "domain": null,
      "origin": null
    },
    "RACE1": {
      "definition": "*Primary race",
      "comment": "uncertain",
      "section": "Demographics Variables",
      "mandatory": null,
      "codeList": null,
      "dataType": null,
      "domain": null,
      "origin": null
    },
    "RACE2": {
      "definition": "*Secondary race",
      "comment": "uncertain",
      "section": "Demographics Variables",
      "mandatory": null,
      "codeList": null,
      "dataType": null,
      "domain": null,
      "origin": null
    },
    "ARACE": {
      "definition": "Analysis race",
      "comment": null,
      "section": "Demographics Variables",
      "mandatory": null,
      "codeList": null,
      "dataType": null,
      "domain": null,
      "origin": null
    },
    "ARACEN": {
      "definition": "Analysis race (numeric)",
      "comment": null,
      "section": "Demographics Variables",
      "mandatory": null,
      "codeList": null,
      "dataType": null,
      "domain": null,
      "origin": null
    },
    "RACEGR1": {
      "definition": "Pooled race group 1 (White, Black or African American, All others)",
      "comment": null,
      "section": "Demographics Variables",
      "mandatory": null,
      "codeList": null,
      "dataType": null,
      "domain": null,
      "origin": null
    },
    "RACEGR1N": {
      "definition": "Pooled race group 1 (numeric)",
      "comment": null,
      "section": "Demographics Variables",
      "mandatory": null,
      "codeList": null,
      "dataType": null,
      "domain": null,
      "origin": null
    },
    "ETHNIC": {
      "definition": "Ethnicity of subject",
      "comment": "SAS",
      "section": "Demographics Variables",
      "mandatory": null,
      "codeList": null,
      "dataType": null,
      "domain": null,
      "origin": null
    },
    "ETHNICN": {
      "definition": "Ethnicity of subject (numeric)",
      "comment": null,
      "section": "Demographics Variables",
      "mandatory": null,
      "codeList": null,
      "dataType": null,
      "domain": null,
      "origin": null
    },
    "HEIGHT": {
      "definition": "Height of subject",
      "comment": null,
      "section": "Demographics Variables",
      "mandatory": null,
      "codeList": null,
      "dataType": null,
      "domain": null,
      "origin": null
    },
    "WEIGHT": {
      "definition": "Weight of subject",
      "comment": null,
      "section": "Demographics Variables",
      "mandatory": null,
      "codeList": null,
      "dataType": null,
      "domain": null,
      "origin": null
    },
    "BMI": {
      "definition": "Body mass index",
      "comment": null,
      "section": "Demographics Variables",
      "mandatory": null,
      "codeList": null,
      "dataType": null,
      "domain": null,
      "origin": null
    },
    "BMICAT": {
      "definition": "Baseline BMI category",
      "comment": null,
      "section": "Demographics Variables",
      "mandatory": null,
      "codeList": null,
      "dataType": null,
      "domain": null,
      "origin": null
    },
    "BMICATN": {
      "definition": "BMI category (numeric)",
      "comment": null,
      "section": "Demographics Variables",
      "mandatory": null,
      "codeList": null,
      "dataType": null,
      "domain": null,
      "origin": null
    },
    "COUNTRY": {
      "definition": "Country of investigational site",
      "comment": null,
      "section": "Demographics Variables",
      "mandatory": null,
      "codeList": null,
      "dataType": null,
      "domain": null,
      "origin": null
    },
    "SCRFL": {
      "definition": "Screened population flag",
      "comment": null,
      "section": "Population Flags",
      "mandatory": null,
      "codeList": null,
      "dataType": null,
      "domain": null,
      "origin": null
    },
    "SCRFN": {
      "definition": "Screened population flag (numeric)",
      "comment": null,
      "section": "Population Flags",
      "mandatory": null,
      "codeList": null,
      "dataType": null,
      "domain": null,
      "origin": null
    },
    "SAFFL": {
      "definition": "Safety population flag",
      "comment": null,
      "section": "Population Flags",
      "mandatory": null,
      "codeList": null,
      "dataType": null,
      "domain": null,
      "origin": null
    },
    "SAFFN": {
      "definition": "Safety population flag (numeric)",
      "comment": null,
      "section": "Population Flags",
      "mandatory": null,
      "codeList": null,
      "dataType": null,
      "domain": null,
      "origin": null
    },
    "SAFBFL": {
      "definition": "Safety Boost Population Flag",
      "comment": null,
      "section": "Population Flags",
      "mandatory": null,
      "codeList": null,
      "dataType": null,
      "domain": null,
      "origin": null
    },
    "SAFBFN": {
      "definition": "Safety Boost Population Flag (numeric)",
      "comment": null,
      "section": "Population Flags",
      "mandatory": null,
      "codeList": null,
      "dataType": null,
      "domain": null,
      "origin": null
    },
    "IMMFL": {
      "definition": "Immunogenicity population flag",
      "comment": null,
      "section": "Population Flags",
      "mandatory": null,
      "codeList": null,
      "dataType": null,
      "domain": null,
      "origin": null
    },
    "IMMFN": {
      "definition": "Immunogenicity population flag (numeric)",
      "comment": null,
      "section": "Population Flags",
      "mandatory": null,
      "codeList": null,
      "dataType": null,
      "domain": null,
      "origin": null
    },
    "PPROTFL": {
      "definition": "Per-protocol population flag",
      "comment": null,
      "section": "Population Flags",
      "mandatory": null,
      "codeList": null,
      "dataType": null,
      "domain": null,
      "origin": null
    },
    "PPROTFN": {
      "definition": "Per-protocol population flag (numeric)",
      "comment": null,
      "section": "Population Flags",
      "mandatory": null,
      "codeList": null,
      "dataType": null,
      "domain": null,
      "origin": null
    },
    "CP7FL": {
      "definition": "Prime + 7 Days completers set",
      "comment": null,
      "section": "Population Flags",
      "mandatory": null,
      "codeList": null,
      "dataType": null,
      "domain": null,
      "origin": null
    },
    "CP7FN": {
      "definition": "Prime + 7 Days completers set (numeric)",
      "comment": null,
      "section": "Population Flags",
      "mandatory": null,
      "codeList": null,
      "dataType": null,
      "domain": null,
      "origin": null
    },
    "CPBP28FL": {
      "definition": "Prime to Boost or Prime +28 D. Comp. Set",
      "comment": null,
      "section": "Population Flags",
      "mandatory": null,
      "codeList": null,
      "dataType": null,
      "domain": null,
      "origin": null
    },
    "CPBP28FN": {
      "definition": "Prime to Boost or Prime +28 D. Comp. Set (numeric)",
      "comment": null,
      "section": "Population Flags",
      "mandatory": null,
      "codeList": null,
      "dataType": null,
      "domain": null,
      "origin": null
    },
    "CB7FL": {
      "definition": "Boost + 7 Days completers set",
      "comment": null,
      "section": "Population Flags",
      "mandatory": null,
      "codeList": null,
      "dataType": null,
      "domain": null,
      "origin": null
    },
    "CB7FN": {
      "definition": "Boost + 7 Days completers set (numeric)",
      "comment": null,
      "section": "Population Flags",
      "mandatory": null,
      "codeList": null,
      "dataType": null,
      "domain": null,
      "origin": null
    },
    "CB28FL": {
      "definition": "Prime or Boost + 28 Days completers Set",
      "comment": null,
      "section": "Population Flags",
      "mandatory": null,
      "codeList": null,
      "dataType": null,
      "domain": null,
      "origin": null
    },
    "CB28FN": {
      "definition": "Prime or Boost + 28 Days completers Set (numeric)",
      "comment": null,
      "section": "Population Flags",
      "mandatory": null,
      "codeList": null,
      "dataType": null,
      "domain": null,
      "origin": null
    },
    "CPB28FL": {
      "definition": "Prime or Boost + 28 Days completers Set",
      "comment": null,
      "section": "Population Flags",
      "mandatory": null,
      "codeList": null,
      "dataType": null,
      "domain": null,
      "origin": null
    },
    "CPB28FN": {
      "definition": "Completed period B day 28 flag (numeric)",
      "comment": null,
      "section": "Population Flags",
      "mandatory": null,
      "codeList": null,
      "dataType": null,
      "domain": null,
      "origin": null
    },
    "COMPLFL": {
      "definition": "Completers population flag",
      "comment": null,
      "section": "Population Flags",
      "mandatory": null,
      "codeList": null,
      "dataType": null,
      "domain": null,
      "origin": null
    },
    "COMPLFN": {
      "definition": "Completers population flag (numeric)",
      "comment": null,
      "section": "Population Flags",
      "mandatory": null,
      "codeList": null,
      "dataType": null,
      "domain": null,
      "origin": null
    },
    "RANDFL": {
      "definition": "Randomized population flag",
      "comment": null,
      "section": "Population Flags",
      "mandatory": null,
      "codeList": null,
      "dataType": null,
      "domain": null,
      "origin": null
    },
    "EVALEFFL": {
      "definition": "Evaluable efficacy population flag",
      "comment": null,
      "section": "Population Flags",
      "mandatory": null,
      "codeList": null,
      "dataType": null,
      "domain": null,
      "origin": null
    },
    "AAI1EFFL": {
      "definition": "Dose 1 all-available efficacy population flag - All randomized participants who complete 1 vaccination dose1.",
      "comment": null,
      "section": "Population Flags",
      "mandatory": null,
      "codeList": null,
      "dataType": null,
      "domain": null,
      "origin": null
    },
    "AAI2EFFL": {
      "definition": "Dose 2 all-available efficacy population flag - All randomized participants who complete 2 vaccination doses.",
      "comment": null,
      "section": "Population Flags",
      "mandatory": null,
      "codeList": null,
      "dataType": null,
      "domain": null,
      "origin": null
    },
    "ENRLFL": {
      "definition": "Enrolled population flag",
      "comment": null,
      "section": "Population Flags",
      "mandatory": null,
      "codeList": null,
      "dataType": null,
      "domain": null,
      "origin": null
    },
    "JPNFL": {
      "definition": "Japanese subject flag",
      "comment": null,
      "section": "Population Flags",
      "mandatory": null,
      "codeList": null,
      "dataType": null,
      "domain": null,
      "origin": null
    },
    "EVAL01FL": {
      "definition": "Dose 1 evaluable immunogenicity population flag",
      "comment": "/https://phmpt.org/wp-content/uploads/2022/03/125742_S1_M5_c4591001-A-adrg.pdf",
      "section": "Population Flags",
      "mandatory": null,
      "codeList": null,
      "dataType": null,
      "domain": null,
      "origin": null
    },
    "EVAL02FL": {
      "definition": "Dose 2 evaluable immunogenicity population flag",
      "comment": null,
      "section": "Population Flags",
      "mandatory": null,
      "codeList": null,
      "dataType": null,
      "domain": null,
      "origin": null
    },
    "AAI01FL": {
      "definition": "Dose 1 all-available immunogenicity population flag",
      "comment": null,
      "section": "Population Flags",
      "mandatory": null,
      "codeList": null,
      "dataType": null,
      "domain": null,
      "origin": null
    },
    "AAI02FL": {
      "definition": "Dose 2 all-available immunogenicity population flag",
      "comment": null,
      "section": "Population Flags",
      "mandatory": null,
      "codeList": null,
      "dataType": null,
      "domain": null,
      "origin": null
    },
    "MULENRFL": {
      "definition": "Multiply enrolled subjects flag (Subjects with multiple sites are excluded from all analysis.)",
      "comment": null,
      "section": "Population Flags",
      "mandatory": null,
      "codeList": null,
      "dataType": null,
      "domain": null,
      "origin": null
    },
    "STEXCFL": {
      "definition": "Site/subject exclusion flag for SQE",
      "comment": null,
      "section": "Population Flags",
      "mandatory": null,
      "codeList": null,
      "dataType": null,
      "domain": null,
      "origin": null
    },
    "UNKRDFL": {
      "definition": "Unknown randomization group flag",
      "comment": null,
      "section": "Population Flags",
      "mandatory": null,
      "codeList": null,
      "dataType": null,
      "domain": null,
      "origin": null
    },
    "EXCL1FL": {
      "definition": "Exclusion criterion 1 flag",
      "comment": null,
      "section": "Population Flags",
      "mandatory": null,
      "codeList": null,
      "dataType": null,
      "domain": null,
      "origin": null
    },
    "EXCL2FL": {
      "definition": "Exclusion criterion 2 flag",
      "comment": null,
      "section": "Population Flags",
      "mandatory": null,
      "codeList": null,
      "dataType": null,
      "domain": null,
      "origin": null
    },
    "EXCL3FL": {
      "definition": "Exclusion criterion 3 flag",
      "comment": null,
      "section": "Population Flags",
      "mandatory": null,
      "codeList": null,
      "dataType": null,
      "domain": null,
      "origin": null
    },
    "EXCL4FL": {
      "definition": "Exclusion criterion 4 flag",
      "comment": null,
      "section": "Population Flags",
      "mandatory": null,
      "codeList": null,
      "dataType": null,
      "domain": null,
      "origin": null
    },
    "EXCL5FL": {
      "definition": "Exclusion criterion 5 flag",
      "comment": null,
      "section": "Population Flags",
      "mandatory": null,
      "codeList": null,
      "dataType": null,
      "domain": null,
      "origin": null
    },
    "EXCL6FL": {
      "definition": "Exclusion criterion 6 flag",
      "comment": null,
      "section": "Population Flags",
      "mandatory": null,
      "codeList": null,
      "dataType": null,
      "domain": null,
      "origin": null
    },
    "EXCL7FL": {
      "definition": "Exclusion criterion 7 flag",
      "comment": null,
      "section": "Population Flags",
      "mandatory": null,
      "codeList": null,
      "dataType": null,
      "domain": null,
      "origin": null
    },
    "EXCL8FL": {
      "definition": "Exclusion criterion 8 flag",
      "comment": null,
      "section": "Population Flags",
      "mandatory": null,
      "codeList": null,
      "dataType": null,
      "domain": null,
      "origin": null
    },
    "EXCL9FL": {
      "definition": "Exclusion criterion 9 flag",
      "comment": null,
      "section": "Population Flags",
      "mandatory": null,
      "codeList": null,
      "dataType": null,
      "domain": null,
      "origin": null
    },
    "INCL1FL": {
      "definition": "Are eligible for the study at rand",
      "comment": null,
      "section": "Population Flags",
      "mandatory": null,
      "codeList": null,
      "dataType": null,
      "domain": null,
      "origin": null
    },
    "INCL2FL": {
      "definition": "Have received vax 1 as randomized",
      "comment": null,
      "section": "Population Flags",
      "mandatory": null,
      "codeList": null,
      "dataType": null,
      "domain": null,
      "origin": null
    },
    "INCL3FL": {
      "definition": "Have valid and DTM immuno result 1",
      "comment": null,
      "section": "Population Flags",
      "mandatory": null,
      "codeList": null,
      "dataType": null,
      "domain": null,
      "origin": null
    },
    "INCL4FL": {
      "definition": "Have valid and DTM immuno result 2",
      "comment": null,
      "section": "Population Flags",
      "mandatory": null,
      "codeList": null,
      "dataType": null,
      "domain": null,
      "origin": null
    },
    "INCL5FL": {
      "definition": "Have blood draw within the timeframe 1",
      "comment": null,
      "section": "Population Flags",
      "mandatory": null,
      "codeList": null,
      "dataType": null,
      "domain": null,
      "origin": null
    },
    "INCL6FL": {
      "definition": "No important protocol deviations determined by clinician",
      "comment": null,
      "section": "Population Flags",
      "mandatory": null,
      "codeList": null,
      "dataType": null,
      "domain": null,
      "origin": null
    },
    "INCL7FL": {
      "definition": "Received 2 doses as rand within window",
      "comment": null,
      "section": "Population Flags",
      "mandatory": null,
      "codeList": null,
      "dataType": null,
      "domain": null,
      "origin": null
    },
    "INCL8FL": {
      "definition": "Have valid and DTM immuno result 3",
      "comment": null,
      "section": "Population Flags",
      "mandatory": null,
      "codeList": null,
      "dataType": null,
      "domain": null,
      "origin": null
    },
    "INCL9FL": {
      "definition": "Have blood draw within the timeframe 2",
      "comment": null,
      "section": "Population Flags",
      "mandatory": null,
      "codeList": null,
      "dataType": null,
      "domain": null,
      "origin": null
    },
    "EXCRIT1": {
      "definition": "Exclusion criterion (null/not eligible for the study at randomization)",
      "comment": null,
      "section": "Population Flags",
      "mandatory": null,
      "codeList": null,
      "dataType": null,
      "domain": null,
      "origin": null
    },
    "EXCRIT2": {
      "definition": "Exclusion criterion (null/did not receive Dose 1 as randomized)",
      "comment": null,
      "section": "Population Flags",
      "mandatory": null,
      "codeList": null,
      "dataType": null,
      "domain": null,
      "origin": null
    },
    "EXCRIT3": {
      "definition": "Exclusion criterion (null/did not have at least 1 valid and determinate immunogenicity result after Dose 1 but before Dose 2)",
      "comment": null,
      "section": "Population Flags",
      "mandatory": null,
      "codeList": null,
      "dataType": null,
      "domain": null,
      "origin": null
    },
    "EXCRIT4": {
      "definition": "Exclusion criterion (null/did not have at least 1 valid and determinate immunogenicity result 21 days after Dose 1)",
      "comment": null,
      "section": "Population Flags",
      "mandatory": null,
      "codeList": null,
      "dataType": null,
      "domain": null,
      "origin": null
    },
    "EXCRIT5": {
      "definition": "Exclusion criterion (null/did not have blood collection within 19-23 days after Dose 1)",
      "comment": null,
      "section": "Population Flags",
      "mandatory": null,
      "codeList": null,
      "dataType": null,
      "domain": null,
      "origin": null
    },
    "EXCRIT6": {
      "definition": "Exclusion criterion (null or 4 values starting with \"had important protocol deviation(s) as determined by the clinician\"",
      "comment": null,
      "section": "Population Flags",
      "mandatory": null,
      "codeList": null,
      "dataType": null,
      "domain": null,
      "origin": null
    },
    "EXCRIT7": {
      "definition": "Exclusion criterion (null/did not receive all vaccination(s) as randomized or did not receive Dose 2 within the predefined window (19-42 days after Dose 1))",
      "comment": null,
      "section": "Population Flags",
      "mandatory": null,
      "codeList": null,
      "dataType": null,
      "domain": null,
      "origin": null
    },
    "EXCRIT8": {
      "definition": "Exclusion criterion (null/did not have at least 1 valid and determinate immunogenicity result after Dose 2)",
      "comment": null,
      "section": "Population Flags",
      "mandatory": null,
      "codeList": null,
      "dataType": null,
      "domain": null,
      "origin": null
    },
    "EXCRIT9": {
      "definition": "Exclusion criterion (null/did not have blood collection within 28-42 days after Dose 2 [Phase 2/3] or 6-8 days after Dose 2 [Phase 1])",
      "comment": null,
      "section": "Population Flags",
      "mandatory": null,
      "codeList": null,
      "dataType": null,
      "domain": null,
      "origin": null
    },
    "DS30KFL": {
      "definition": "Phase 3 30k subjects flag",
      "comment": null,
      "section": "Population Flags",
      "mandatory": null,
      "codeList": null,
      "dataType": null,
      "domain": null,
      "origin": null
    },
    "NIGV1FL": {
      "definition": "N-binding antibody negative at visit 1 flag",
      "comment": null,
      "section": "Population Flags",
      "mandatory": null,
      "codeList": null,
      "dataType": null,
      "domain": null,
      "origin": null
    },
    "NAATNFL": {
      "definition": "NAAT (active infection test) negative at baseline flag",
      "comment": null,
      "section": "Population Flags",
      "mandatory": null,
      "codeList": null,
      "dataType": null,
      "domain": null,
      "origin": null
    },
    "COMBODFL": {
      "definition": "Comorbidity flag",
      "comment": "https://phmpt.org/wp-content/uploads/2022/03/FDA-CBER-2021-5683-0022867-to-0023006_125742_S1_M5_c4591001-A-P-adsl-sas.txt",
      "section": "Population Flags",
      "mandatory": null,
      "codeList": null,
      "dataType": null,
      "domain": null,
      "origin": null
    },
    "PREFL": {
      "definition": "Pre-treatment flag",
      "comment": null,
      "section": "Population Flags",
      "mandatory": null,
      "codeList": null,
      "dataType": null,
      "domain": null,
      "origin": null
    },
    "INWDFL": {
      "definition": "In window flag",
      "comment": null,
      "section": "Population Flags",
      "mandatory": null,
      "codeList": null,
      "dataType": null,
      "domain": null,
      "origin": null
    },
    "KNOWVFL": {
      "definition": "Known value flag - Y if reaction happened at least once during Days 1-7 post-dose (per subject/dose/event)",
      "comment": null,
      "section": "Population Flags",
      "mandatory": null,
      "codeList": null,
      "dataType": null,
      "domain": null,
      "origin": null
    },
    "KNOWVDFL": {
      "definition": "Data collection flag - Y if reaction data was recorded on this specific day, regardless of occurrence (per subject/dose/event/day)",
      "comment": null,
      "section": "Population Flags",
      "mandatory": null,
      "codeList": null,
      "dataType": null,
      "domain": null,
      "origin": null
    },
    "EVENTFL": {
      "definition": "Event value flag",
      "comment": null,
      "section": "Population Flags",
      "mandatory": null,
      "codeList": null,
      "dataType": null,
      "domain": null,
      "origin": null
    },
    "EVENTDFL": {
      "definition": "Day event value flag - \"Daily flag (Y/N) for adverse events meeting criteria on days 1-7 post-dose per subject/dose/parameter\"",
      "comment": null,
      "section": "Population Flags",
      "mandatory": null,
      "codeList": null,
      "dataType": null,
      "domain": null,
      "origin": null
    },
    "EVENTOCC": {
      "definition": "Event occurrence",
      "comment": null,
      "section": "Population Flags",
      "mandatory": null,
      "codeList": null,
      "dataType": null,
      "domain": null,
      "origin": null
    },
    "COMORBFL": {
      "definition": "Comorbidity flag",
      "comment": null,
      "section": "Population Flags",
      "mandatory": null,
      "codeList": null,
      "dataType": null,
      "domain": null,
      "origin": null
    },
    "EVIMMFL": {
      "definition": "Evaluable immunogenicity flag",
      "comment": null,
      "section": "Population Flags",
      "mandatory": null,
      "codeList": null,
      "dataType": null,
      "domain": null,
      "origin": null
    },
    "AAIMMFL": {
      "definition": "Anti-antibody immunogenicity flag",
      "comment": null,
      "section": "Population Flags",
      "mandatory": null,
      "codeList": null,
      "dataType": null,
      "domain": null,
      "origin": null
    },
    "PRIMDT": {
      "definition": "*Primary endpoint date",
      "comment": "uncertain",
      "section": "Date/Time Variables",
      "mandatory": null,
      "codeList": null,
      "dataType": null,
      "domain": null,
      "origin": null
    },
    "PRIMTM": {
      "definition": "Primary endpoint time",
      "comment": null,
      "section": "Date/Time Variables",
      "mandatory": null,
      "codeList": null,
      "dataType": null,
      "domain": null,
      "origin": null
    },
    "PRIMDTM": {
      "definition": "Primary endpoint datetime",
      "comment": null,
      "section": "Date/Time Variables",
      "mandatory": null,
      "codeList": null,
      "dataType": null,
      "domain": null,
      "origin": null
    },
    "BOIMDT": {
      "definition": "*Baseline or initial measurement date",
      "comment": "uncertain",
      "section": "Date/Time Variables",
      "mandatory": null,
      "codeList": null,
      "dataType": null,
      "domain": null,
      "origin": null
    },
    "BOIMTM": {
      "definition": "Baseline or initial measurement time",
      "comment": null,
      "section": "Date/Time Variables",
      "mandatory": null,
      "codeList": null,
      "dataType": null,
      "domain": null,
      "origin": null
    },
    "BOIMDTM": {
      "definition": "Baseline or initial measurement datetime",
      "comment": null,
      "section": "Date/Time Variables",
      "mandatory": null,
      "codeList": null,
      "dataType": null,
      "domain": null,
      "origin": null
    },
    "ALLOCDT": {
      "definition": "Allocation date",
      "comment": null,
      "section": "Date/Time Variables",
      "mandatory": null,
      "codeList": null,
      "dataType": null,
      "domain": null,
      "origin": null
    },
    "ALLOCTM": {
      "definition": "Allocation time",
      "comment": null,
      "section": "Date/Time Variables",
      "mandatory": null,
      "codeList": null,
      "dataType": null,
      "domain": null,
      "origin": null
    },
    "ALLOCDTM": {
      "definition": "Allocation datetime",
      "comment": null,
      "section": "Date/Time Variables",
      "mandatory": null,
      "codeList": null,
      "dataType": null,
      "domain": null,
      "origin": null
    },
    "RFSTDTC": {
      "definition": "Subject reference start date/time",
      "comment": null,
      "section": "Date/Time Variables",
      "mandatory": null,
      "codeList": null,
      "dataType": null,
      "domain": null,
      "origin": null
    },
    "RFSTDT": {
      "definition": "Reference start date",
      "comment": null,
      "section": "Date/Time Variables",
      "mandatory": null,
      "codeList": null,
      "dataType": null,
      "domain": null,
      "origin": null
    },
    "RFSTTM": {
      "definition": "Reference start time",
      "comment": null,
      "section": "Date/Time Variables",
      "mandatory": null,
      "codeList": null,
      "dataType": null,
      "domain": null,
      "origin": null
    },
    "RFENDTC": {
      "definition": "Subject reference end date/time",
      "comment": null,
      "section": "Date/Time Variables",
      "mandatory": null,
      "codeList": null,
      "dataType": null,
      "domain": null,
      "origin": null
    },
    "RFENDT": {
      "definition": "Reference end date",
      "comment": null,
      "section": "Date/Time Variables",
      "mandatory": null,
      "codeList": null,
      "dataType": null,
      "domain": null,
      "origin": null
    },
    "RFENTM": {
      "definition": "Reference end time",
      "comment": null,
      "section": "Date/Time Variables",
      "mandatory": null,
      "codeList": null,
      "dataType": null,
      "domain": null,
      "origin": null
    },
    "RFXSTDTC": {
      "definition": "Date/time of first study treatment",
      "comment": null,
      "section": "Date/Time Variables",
      "mandatory": null,
      "codeList": null,
      "dataType": null,
      "domain": null,
      "origin": null
    },
    "RFXENDTC": {
      "definition": "Date/time of last study treatment",
      "comment": null,
      "section": "Date/Time Variables",
      "mandatory": null,
      "codeList": null,
      "dataType": null,
      "domain": null,
      "origin": null
    },
    "RFICDTC": {
      "definition": "Date/time of informed consent",
      "comment": null,
      "section": "Date/Time Variables",
      "mandatory": null,
      "codeList": null,
      "dataType": null,
      "domain": null,
      "origin": null
    },
    "RFICDT": {
      "definition": "Reference informed consent date",
      "comment": null,
      "section": "Date/Time Variables",
      "mandatory": null,
      "codeList": null,
      "dataType": null,
      "domain": null,
      "origin": null
    },
    "RFICTM": {
      "definition": "Reference informed consent time",
      "comment": null,
      "section": "Date/Time Variables",
      "mandatory": null,
      "codeList": null,
      "dataType": null,
      "domain": null,
      "origin": null
    },
    "RFICDTM": {
      "definition": "Reference informed consent datetime",
      "comment": null,
      "section": "Date/Time Variables",
      "mandatory": null,
      "codeList": null,
      "dataType": null,
      "domain": null,
      "origin": null
    },
    "RFPENDTC": {
      "definition": "Date/time of end of participation",
      "comment": null,
      "section": "Date/Time Variables",
      "mandatory": null,
      "codeList": null,
      "dataType": null,
      "domain": null,
      "origin": null
    },
    "RFPENDT": {
      "definition": "Reference participation end date",
      "comment": null,
      "section": "Date/Time Variables",
      "mandatory": null,
      "codeList": null,
      "dataType": null,
      "domain": null,
      "origin": null
    },
    "DTHDTC": {
      "definition": "Date/time of death",
      "comment": null,
      "section": "Date/Time Variables",
      "mandatory": null,
      "codeList": null,
      "dataType": null,
      "domain": null,
      "origin": null
    },
    "DTHDT": {
      "definition": "Death date",
      "comment": null,
      "section": "Date/Time Variables",
      "mandatory": null,
      "codeList": null,
      "dataType": null,
      "domain": null,
      "origin": null
    },
    "DTHDTF": {
      "definition": "Death date flag",
      "comment": null,
      "section": "Date/Time Variables",
      "mandatory": null,
      "codeList": null,
      "dataType": null,
      "domain": null,
      "origin": null
    },
    "DTHFL": {
      "definition": "Death flag (Y/N)",
      "comment": null,
      "section": "Date/Time Variables",
      "mandatory": null,
      "codeList": null,
      "dataType": null,
      "domain": null,
      "origin": null
    },
    "BRTHDT": {
      "definition": "Birth date",
      "comment": null,
      "section": "Date/Time Variables",
      "mandatory": null,
      "codeList": null,
      "dataType": null,
      "domain": null,
      "origin": null
    },
    "BRTHDTC": {
      "definition": "Birth date/time",
      "comment": null,
      "section": "Date/Time Variables",
      "mandatory": null,
      "codeList": null,
      "dataType": null,
      "domain": null,
      "origin": null
    },
    "BRTHDTF": {
      "definition": "Date of birth imputation flag",
      "comment": null,
      "section": "Date/Time Variables",
      "mandatory": null,
      "codeList": null,
      "dataType": null,
      "domain": null,
      "origin": null
    },
    "DCODT": {
      "definition": "Data cutoff date",
      "comment": null,
      "section": "Date/Time Variables",
      "mandatory": null,
      "codeList": null,
      "dataType": null,
      "domain": null,
      "origin": null
    },
    "RANDDT": {
      "definition": "Randomization date",
      "comment": null,
      "section": "Date/Time Variables",
      "mandatory": null,
      "codeList": null,
      "dataType": null,
      "domain": null,
      "origin": null
    },
    "VAX101DT": {
      "definition": "Date of first vaccination",
      "comment": null,
      "section": "Date/Time Variables",
      "mandatory": null,
      "codeList": null,
      "dataType": null,
      "domain": null,
      "origin": null
    },
    "VAX101TM": {
      "definition": "Time of first vaccination",
      "comment": null,
      "section": "Date/Time Variables",
      "mandatory": null,
      "codeList": null,
      "dataType": null,
      "domain": null,
      "origin": null
    },
    "VAX102DT": {
      "definition": "Date of second vaccination",
      "comment": null,
      "section": "Date/Time Variables",
      "mandatory": null,
      "codeList": null,
      "dataType": null,
      "domain": null,
      "origin": null
    },
    "VAX102TM": {
      "definition": "Time of second vaccination",
      "comment": null,
      "section": "Date/Time Variables",
      "mandatory": null,
      "codeList": null,
      "dataType": null,
      "domain": null,
      "origin": null
    },
    "VAX103DT": {
      "definition": "Date of third vaccination",
      "comment": null,
      "section": "Date/Time Variables",
      "mandatory": null,
      "codeList": null,
      "dataType": null,
      "domain": null,
      "origin": null
    },
    "VAX103TM": {
      "definition": "Time of third vaccination",
      "comment": null,
      "section": "Date/Time Variables",
      "mandatory": null,
      "codeList": null,
      "dataType": null,
      "domain": null,
      "origin": null
    },
    "DVSTDT": {
      "definition": "Start Date of important protocol deviation",
      "comment": null,
      "section": "Date/Time Variables",
      "mandatory": null,
      "codeList": null,
      "dataType": null,
      "domain": null,
      "origin": null
    },
    "EOTDCDT": {
      "definition": "End of treatment discontinuation date",
      "comment": null,
      "section": "Date/Time Variables",
      "mandatory": null,
      "codeList": null,
      "dataType": null,
      "domain": null,
      "origin": null
    },
    "EOSDCDT": {
      "definition": "End of study discontinuation date",
      "comment": null,
      "section": "Date/Time Variables",
      "mandatory": null,
      "codeList": null,
      "dataType": null,
      "domain": null,
      "origin": null
    },
    "COMPLDT": {
      "definition": "Completion date",
      "comment": null,
      "section": "Date/Time Variables",
      "mandatory": null,
      "codeList": null,
      "dataType": null,
      "domain": null,
      "origin": null
    },
    "SCRDT": {
      "definition": "Screening date",
      "comment": null,
      "section": "Date/Time Variables",
      "mandatory": null,
      "codeList": null,
      "dataType": null,
      "domain": null,
      "origin": null
    },
    "LVDT": {
      "definition": "Last visit date",
      "comment": null,
      "section": "Date/Time Variables",
      "mandatory": null,
      "codeList": null,
      "dataType": null,
      "domain": null,
      "origin": null
    },
    "FIRICDT": {
      "definition": "*First informed consent date",
      "comment": "uncertain",
      "section": "Date/Time Variables",
      "mandatory": null,
      "codeList": null,
      "dataType": null,
      "domain": null,
      "origin": null
    },
    "ICR1DT": {
      "definition": "Informed consent revision 1 date",
      "comment": null,
      "section": "Date/Time Variables",
      "mandatory": null,
      "codeList": null,
      "dataType": null,
      "domain": null,
      "origin": null
    },
    "ICR1TM": {
      "definition": "Informed consent revision 1 time",
      "comment": null,
      "section": "Date/Time Variables",
      "mandatory": null,
      "codeList": null,
      "dataType": null,
      "domain": null,
      "origin": null
    },
    "ICR1DTM": {
      "definition": "Informed consent revision 1 datetime",
      "comment": null,
      "section": "Date/Time Variables",
      "mandatory": null,
      "codeList": null,
      "dataType": null,
      "domain": null,
      "origin": null
    },
    "ICR2DT": {
      "definition": "Informed consent revision 2 date",
      "comment": null,
      "section": "Date/Time Variables",
      "mandatory": null,
      "codeList": null,
      "dataType": null,
      "domain": null,
      "origin": null
    },
    "ICR2TM": {
      "definition": "Informed consent revision 2 time",
      "comment": null,
      "section": "Date/Time Variables",
      "mandatory": null,
      "codeList": null,
      "dataType": null,
      "domain": null,
      "origin": null
    },
    "ICR2DTM": {
      "definition": "Informed consent revision 2 datetime",
      "comment": null,
      "section": "Date/Time Variables",
      "mandatory": null,
      "codeList": null,
      "dataType": null,
      "domain": null,
      "origin": null
    },
    "ICR3DT": {
      "definition": "Informed consent revision 3 date",
      "comment": null,
      "section": "Date/Time Variables",
      "mandatory": null,
      "codeList": null,
      "dataType": null,
      "domain": null,
      "origin": null
    },
    "ICR3TM": {
      "definition": "Informed consent revision 3 time",
      "comment": null,
      "section": "Date/Time Variables",
      "mandatory": null,
      "codeList": null,
      "dataType": null,
      "domain": null,
      "origin": null
    },
    "ICR3DTM": {
      "definition": "Informed consent revision 3 datetime",
      "comment": null,
      "section": "Date/Time Variables",
      "mandatory": null,
      "codeList": null,
      "dataType": null,
      "domain": null,
      "origin": null
    },
    "TR01SDT": {
      "definition": "Date of first exposure in period 01",
      "comment": null,
      "section": "Date/Time Variables",
      "mandatory": null,
      "codeList": null,
      "dataType": null,
      "domain": null,
      "origin": null
    },
    "TR01STM": {
      "definition": "Time of first exposure in period 01",
      "comment": null,
      "section": "Date/Time Variables",
      "mandatory": null,
      "codeList": null,
      "dataType": null,
      "domain": null,
      "origin": null
    },
    "TR01SDTM": {
      "definition": "Datetime of first exposure in period 01",
      "comment": null,
      "section": "Date/Time Variables",
      "mandatory": null,
      "codeList": null,
      "dataType": null,
      "domain": null,
      "origin": null
    },
    "TR01EDT": {
      "definition": "Date of last exposure in period 01",
      "comment": null,
      "section": "Date/Time Variables",
      "mandatory": null,
      "codeList": null,
      "dataType": null,
      "domain": null,
      "origin": null
    },
    "TR01ETM": {
      "definition": "Time of last exposure in period 01",
      "comment": null,
      "section": "Date/Time Variables",
      "mandatory": null,
      "codeList": null,
      "dataType": null,
      "domain": null,
      "origin": null
    },
    "TR01EDTM": {
      "definition": "Datetime of last exposure in period 01",
      "comment": null,
      "section": "Date/Time Variables",
      "mandatory": null,
      "codeList": null,
      "dataType": null,
      "domain": null,
      "origin": null
    },
    "V01DT": {
      "definition": "Date of unblinding or visit at 1 month post dose 2",
      "comment": "https://icandecide.org/wp-content/uploads/2023/09/125742-45_S211_M5_c4591001-A_1mth-P-adsl-sas.pdf",
      "section": "Date/Time Variables",
      "mandatory": null,
      "codeList": null,
      "dataType": null,
      "domain": null,
      "origin": null
    },
    "V02DT": {
      "definition": "Date of unblinding or visit at 6 months post dose 2",
      "comment": null,
      "section": "Date/Time Variables",
      "mandatory": null,
      "codeList": null,
      "dataType": null,
      "domain": null,
      "origin": null
    },
    "BLDV1DT": {
      "definition": "Blood sample date before vax 1",
      "comment": null,
      "section": "Date/Time Variables",
      "mandatory": null,
      "codeList": null,
      "dataType": null,
      "domain": null,
      "origin": null
    },
    "BLDV2DT": {
      "definition": "Blood sample date 1 week after vax 1",
      "comment": null,
      "section": "Date/Time Variables",
      "mandatory": null,
      "codeList": null,
      "dataType": null,
      "domain": null,
      "origin": null
    },
    "BLDV3DT": {
      "definition": "Blood sample date before vax 2",
      "comment": null,
      "section": "Date/Time Variables",
      "mandatory": null,
      "codeList": null,
      "dataType": null,
      "domain": null,
      "origin": null
    },
    "BLDV3ADT": {
      "definition": "Additional blood sample date 3 weeks after vax 1",
      "comment": null,
      "section": "Date/Time Variables",
      "mandatory": null,
      "codeList": null,
      "dataType": null,
      "domain": null,
      "origin": null
    },
    "BLDV4DT": {
      "definition": "Blood sample date 1 week after vax 2",
      "comment": null,
      "section": "Date/Time Variables",
      "mandatory": null,
      "codeList": null,
      "dataType": null,
      "domain": null,
      "origin": null
    },
    "BLDV4ADT": {
      "definition": "Additional blood sample date 4 weeks after vax 1",
      "comment": null,
      "section": "Date/Time Variables",
      "mandatory": null,
      "codeList": null,
      "dataType": null,
      "domain": null,
      "origin": null
    },
    "BLDV5DT": {
      "definition": "Blood sample date 2 weeks after vax 2",
      "comment": null,
      "section": "Date/Time Variables",
      "mandatory": null,
      "codeList": null,
      "dataType": null,
      "domain": null,
      "origin": null
    },
    "BLDV5ADT": {
      "definition": "Additional blood sample date 5 weeks after vax 1",
      "comment": null,
      "section": "Date/Time Variables",
      "mandatory": null,
      "codeList": null,
      "dataType": null,
      "domain": null,
      "origin": null
    },
    "BLDV6DT": {
      "definition": "Blood sample date 1 month after vax 2",
      "comment": null,
      "section": "Date/Time Variables",
      "mandatory": null,
      "codeList": null,
      "dataType": null,
      "domain": null,
      "origin": null
    },
    "BLDV6ADT": {
      "definition": "Additional blood sample date 7 weeks after vax 1",
      "comment": null,
      "section": "Date/Time Variables",
      "mandatory": null,
      "codeList": null,
      "dataType": null,
      "domain": null,
      "origin": null
    },
    "BLDV7DT": {
      "definition": "Blood sample date 6 months after vax 2",
      "comment": null,
      "section": "Date/Time Variables",
      "mandatory": null,
      "codeList": null,
      "dataType": null,
      "domain": null,
      "origin": null
    },
    "BLDV8DT": {
      "definition": "Blood sample date",
      "comment": null,
      "section": "Date/Time Variables",
      "mandatory": null,
      "codeList": null,
      "dataType": null,
      "domain": null,
      "origin": null
    },
    "BLDV9DT": {
      "definition": "Blood visit 9 date",
      "comment": null,
      "section": "Date/Time Variables",
      "mandatory": null,
      "codeList": null,
      "dataType": null,
      "domain": null,
      "origin": null
    },
    "M1PD2DT": {
      "definition": "Seeking documentation. Possibly: Month 1 post dose 2 date",
      "comment": null,
      "section": "Date/Time Variables",
      "mandatory": null,
      "codeList": null,
      "dataType": null,
      "domain": null,
      "origin": null
    },
    "PD1POSDT": {
      "definition": "Seeking documentation. Possibly: Post dose 1 positive date",
      "comment": "uncertain",
      "section": "Date/Time Variables",
      "mandatory": null,
      "codeList": null,
      "dataType": null,
      "domain": null,
      "origin": null
    },
    "CESEQ": {
      "definition": "Sequence number for clinical event",
      "comment": null,
      "section": "Clinical Event Variables",
      "mandatory": null,
      "codeList": null,
      "dataType": null,
      "domain": null,
      "origin": null
    },
    "CEGRPID": {
      "definition": "Clinical event group ID",
      "comment": null,
      "section": "Clinical Event Variables",
      "mandatory": null,
      "codeList": null,
      "dataType": null,
      "domain": null,
      "origin": null
    },
    "CETERM": {
      "definition": "Reported term for the clinical event",
      "comment": null,
      "section": "Clinical Event Variables",
      "mandatory": null,
      "codeList": null,
      "dataType": null,
      "domain": null,
      "origin": null
    },
    "CEDECOD": {
      "definition": "Dictionary-derived term",
      "comment": null,
      "section": "Clinical Event Variables",
      "mandatory": null,
      "codeList": null,
      "dataType": null,
      "domain": null,
      "origin": null
    },
    "CEBODSYS": {
      "definition": "Body system or organ class",
      "comment": null,
      "section": "Clinical Event Variables",
      "mandatory": null,
      "codeList": null,
      "dataType": null,
      "domain": null,
      "origin": null
    },
    "CEBDSYCD": {
      "definition": "Body system or organ class code",
      "comment": null,
      "section": "Clinical Event Variables",
      "mandatory": null,
      "codeList": null,
      "dataType": null,
      "domain": null,
      "origin": null
    },
    "CELLT": {
      "definition": "Lowest level term",
      "comment": null,
      "section": "Clinical Event Variables",
      "mandatory": null,
      "codeList": null,
      "dataType": null,
      "domain": null,
      "origin": null
    },
    "CELLTCD": {
      "definition": "Lowest level term code",
      "comment": null,
      "section": "Clinical Event Variables",
      "mandatory": null,
      "codeList": null,
      "dataType": null,
      "domain": null,
      "origin": null
    },
    "CEPTCD": {
      "definition": "Preferred term code",
      "comment": null,
      "section": "Clinical Event Variables",
      "mandatory": null,
      "codeList": null,
      "dataType": null,
      "domain": null,
      "origin": null
    },
    "CECAT": {
      "definition": "Category for clinical event",
      "comment": null,
      "section": "Clinical Event Variables",
      "mandatory": null,
      "codeList": null,
      "dataType": null,
      "domain": null,
      "origin": null
    },
    "CESCAT": {
      "definition": "Subcategory for clinical event",
      "comment": null,
      "section": "Clinical Event Variables",
      "mandatory": null,
      "codeList": null,
      "dataType": null,
      "domain": null,
      "origin": null
    },
    "ACAT1": {
      "definition": "Analysis category 1",
      "comment": null,
      "section": "Clinical Event Variables",
      "mandatory": null,
      "codeList": null,
      "dataType": null,
      "domain": null,
      "origin": null
    },
    "CESTDTC": {
      "definition": "Start date/time of clinical event",
      "comment": null,
      "section": "Clinical Event Variables",
      "mandatory": null,
      "codeList": null,
      "dataType": null,
      "domain": null,
      "origin": null
    },
    "CEENDTC": {
      "definition": "End date/time of clinical event",
      "comment": null,
      "section": "Clinical Event Variables",
      "mandatory": null,
      "codeList": null,
      "dataType": null,
      "domain": null,
      "origin": null
    },
    "CESTDY": {
      "definition": "Study day of start of clinical event",
      "comment": null,
      "section": "Clinical Event Variables",
      "mandatory": null,
      "codeList": null,
      "dataType": null,
      "domain": null,
      "origin": null
    },
    "CEENDY": {
      "definition": "Study day of end of clinical event",
      "comment": null,
      "section": "Clinical Event Variables",
      "mandatory": null,
      "codeList": null,
      "dataType": null,
      "domain": null,
      "origin": null
    },
    "CEDUR": {
      "definition": "Duration of clinical event",
      "comment": null,
      "section": "Clinical Event Variables",
      "mandatory": null,
      "codeList": null,
      "dataType": null,
      "domain": null,
      "origin": null
    },
    "CEENRTPT": {
      "definition": "End reference time point",
      "comment": null,
      "section": "Clinical Event Variables",
      "mandatory": null,
      "codeList": null,
      "dataType": null,
      "domain": null,
      "origin": null
    },
    "CEENTPT": {
      "definition": "End time point",
      "comment": null,
      "section": "Clinical Event Variables",
      "mandatory": null,
      "codeList": null,
      "dataType": null,
      "domain": null,
      "origin": null
    },
    "ATPT": {
      "definition": "Analysis time point",
      "comment": null,
      "section": "Clinical Event Variables",
      "mandatory": null,
      "codeList": null,
      "dataType": null,
      "domain": null,
      "origin": null
    },
    "ATPTN": {
      "definition": "Analysis time point (numeric)",
      "comment": null,
      "section": "Clinical Event Variables",
      "mandatory": null,
      "codeList": null,
      "dataType": null,
      "domain": null,
      "origin": null
    },
    "CETPT": {
      "definition": "Clinical event time point",
      "comment": null,
      "section": "Clinical Event Variables",
      "mandatory": null,
      "codeList": null,
      "dataType": null,
      "domain": null,
      "origin": null
    },
    "ATPTREF": {
      "definition": "Analysis time point reference",
      "comment": null,
      "section": "Clinical Event Variables",
      "mandatory": null,
      "codeList": null,
      "dataType": null,
      "domain": null,
      "origin": null
    },
    "CETPTREF": {
      "definition": "Clinical event time point reference",
      "comment": null,
      "section": "Clinical Event Variables",
      "mandatory": null,
      "codeList": null,
      "dataType": null,
      "domain": null,
      "origin": null
    },
    "CEOCCUR": {
      "definition": "Clinical event occurrence",
      "comment": null,
      "section": "Clinical Event Variables",
      "mandatory": null,
      "codeList": null,
      "dataType": null,
      "domain": null,
      "origin": null
    },
    "CEPRESP": {
      "definition": "Clinical event pre-specified",
      "comment": null,
      "section": "Clinical Event Variables",
      "mandatory": null,
      "codeList": null,
      "dataType": null,
      "domain": null,
      "origin": null
    },
    "CESEV": {
      "definition": "Severity/intensity",
      "comment": null,
      "section": "Clinical Event Variables",
      "mandatory": null,
      "codeList": null,
      "dataType": null,
      "domain": null,
      "origin": null
    },
    "CETOXGR": {
      "definition": "Toxicity grade",
      "comment": null,
      "section": "Clinical Event Variables",
      "mandatory": null,
      "codeList": null,
      "dataType": null,
      "domain": null,
      "origin": null
    },
    "CESTAT": {
      "definition": "Completion status",
      "comment": null,
      "section": "Clinical Event Variables",
      "mandatory": null,
      "codeList": null,
      "dataType": null,
      "domain": null,
      "origin": null
    },
    "CEREASND": {
      "definition": "Reason not done",
      "comment": null,
      "section": "Clinical Event Variables",
      "mandatory": null,
      "codeList": null,
      "dataType": null,
      "domain": null,
      "origin": null
    },
    "CELOC": {
      "definition": "Location of clinical event",
      "comment": null,
      "section": "Clinical Event Variables",
      "mandatory": null,
      "codeList": null,
      "dataType": null,
      "domain": null,
      "origin": null
    },
    "CELAT": {
      "definition": "Laterality of clinical event",
      "comment": null,
      "section": "Clinical Event Variables",
      "mandatory": null,
      "codeList": null,
      "dataType": null,
      "domain": null,
      "origin": null
    },
    "CEDTC": {
      "definition": "Date/time of clinical event",
      "comment": null,
      "section": "Clinical Event Variables",
      "mandatory": null,
      "codeList": null,
      "dataType": null,
      "domain": null,
      "origin": null
    },
    "CEDY": {
      "definition": "Study day of clinical event",
      "comment": null,
      "section": "Clinical Event Variables",
      "mandatory": null,
      "codeList": null,
      "dataType": null,
      "domain": null,
      "origin": null
    },
    "CELNKGRP": {
      "definition": "Clinical event link group",
      "comment": null,
      "section": "Clinical Event Variables",
      "mandatory": null,
      "codeList": null,
      "dataType": null,
      "domain": null,
      "origin": null
    },
    "CEHLT": {
      "definition": "High level term",
      "comment": null,
      "section": "Clinical Event Variables",
      "mandatory": null,
      "codeList": null,
      "dataType": null,
      "domain": null,
      "origin": null
    },
    "CEHLTCD": {
      "definition": "High level term code",
      "comment": null,
      "section": "Clinical Event Variables",
      "mandatory": null,
      "codeList": null,
      "dataType": null,
      "domain": null,
      "origin": null
    },
    "CEHLGT": {
      "definition": "High level group term",
      "comment": null,
      "section": "Clinical Event Variables",
      "mandatory": null,
      "codeList": null,
      "dataType": null,
      "domain": null,
      "origin": null
    },
    "CEHLGTCD": {
      "definition": "High level group term code",
      "comment": null,
      "section": "Clinical Event Variables",
      "mandatory": null,
      "codeList": null,
      "dataType": null,
      "domain": null,
      "origin": null
    },
    "CESOC": {
      "definition": "System organ class",
      "comment": null,
      "section": "Clinical Event Variables",
      "mandatory": null,
      "codeList": null,
      "dataType": null,
      "domain": null,
      "origin": null
    },
    "CESOCCD": {
      "definition": "System organ class code",
      "comment": null,
      "section": "Clinical Event Variables",
      "mandatory": null,
      "codeList": null,
      "dataType": null,
      "domain": null,
      "origin": null
    },
    "CETPTNUM": {
      "definition": "Numeric identifier of when an observation is planned to occur",
      "comment": null,
      "section": "Clinical Event Variables",
      "mandatory": null,
      "codeList": null,
      "dataType": null,
      "domain": null,
      "origin": null
    },
    "CERFTDTC": {
      "definition": "Reference date/time",
      "comment": null,
      "section": "Clinical Event Variables",
      "mandatory": null,
      "codeList": null,
      "dataType": null,
      "domain": null,
      "origin": null
    },
    "CEEVINTX": {
      "definition": "Evaluation interval text",
      "comment": null,
      "section": "Clinical Event Variables",
      "mandatory": null,
      "codeList": null,
      "dataType": null,
      "domain": null,
      "origin": null
    },
    "SEVGR1": {
      "definition": "Severity grade 1",
      "comment": null,
      "section": "Severity/Grade Variables",
      "mandatory": null,
      "codeList": null,
      "dataType": null,
      "domain": null,
      "origin": null
    },
    "SEVGR1N": {
      "definition": "Severity grade 1 (numeric)",
      "comment": null,
      "section": "Severity/Grade Variables",
      "mandatory": null,
      "codeList": null,
      "dataType": null,
      "domain": null,
      "origin": null
    },
    "ADT": {
      "definition": "Analysis date",
      "comment": null,
      "section": "Analysis Variables",
      "mandatory": null,
      "codeList": null,
      "dataType": null,
      "domain": null,
      "origin": null
    },
    "ADTM": {
      "definition": "Analysis datetime",
      "comment": null,
      "section": "Analysis Variables",
      "mandatory": null,
      "codeList": null,
      "dataType": null,
      "domain": null,
      "origin": null
    },
    "ADY": {
      "definition": "Analysis relative day",
      "comment": null,
      "section": "Analysis Variables",
      "mandatory": null,
      "codeList": null,
      "dataType": null,
      "domain": null,
      "origin": null
    },
    "FADTC": {
      "definition": "Findings analysis date/time",
      "comment": null,
      "section": "Analysis Variables",
      "mandatory": null,
      "codeList": null,
      "dataType": null,
      "domain": null,
      "origin": null
    },
    "VSDTC": {
      "definition": "Vital signs date/time",
      "comment": null,
      "section": "Analysis Variables",
      "mandatory": null,
      "codeList": null,
      "dataType": null,
      "domain": null,
      "origin": null
    },
    "FATPT": {
      "definition": "Findings analysis time point",
      "comment": null,
      "section": "Analysis Variables",
      "mandatory": null,
      "codeList": null,
      "dataType": null,
      "domain": null,
      "origin": null
    },
    "VSTPT": {
      "definition": "Vital signs time point",
      "comment": null,
      "section": "Analysis Variables",
      "mandatory": null,
      "codeList": null,
      "dataType": null,
      "domain": null,
      "origin": null
    },
    "FATPTREF": {
      "definition": "Findings analysis time point reference",
      "comment": null,
      "section": "Analysis Variables",
      "mandatory": null,
      "codeList": null,
      "dataType": null,
      "domain": null,
      "origin": null
    },
    "VSTPTREF": {
      "definition": "Vital signs time point reference",
      "comment": null,
      "section": "Analysis Variables",
      "mandatory": null,
      "codeList": null,
      "dataType": null,
      "domain": null,
      "origin": null
    },
    "PARAM": {
      "definition": "Parameter description",
      "comment": null,
      "section": "Analysis Variables",
      "mandatory": null,
      "codeList": null,
      "dataType": null,
      "domain": null,
      "origin": null
    },
    "PARAMCD": {
      "definition": "Parameter code",
      "comment": null,
      "section": "Analysis Variables",
      "mandatory": null,
      "codeList": null,
      "dataType": null,
      "domain": null,
      "origin": null
    },
    "PARAMN": {
      "definition": "Parameter (numeric)",
      "comment": null,
      "section": "Analysis Variables",
      "mandatory": null,
      "codeList": null,
      "dataType": null,
      "domain": null,
      "origin": null
    },
    "AVAL": {
      "definition": "Analysis value",
      "comment": null,
      "section": "Analysis Variables",
      "mandatory": null,
      "codeList": null,
      "dataType": null,
      "domain": null,
      "origin": null
    },
    "AVALC": {
      "definition": "Analysis value (character)",
      "comment": null,
      "section": "Analysis Variables",
      "mandatory": null,
      "codeList": null,
      "dataType": null,
      "domain": null,
      "origin": null
    },
    "AVALCA1N": {
      "definition": "Analysis value category 1 (numeric)",
      "comment": null,
      "section": "Analysis Variables",
      "mandatory": null,
      "codeList": null,
      "dataType": null,
      "domain": null,
      "origin": null
    },
    "AVALCAT1": {
      "definition": "Analysis value category 1",
      "comment": null,
      "section": "Analysis Variables",
      "mandatory": null,
      "codeList": null,
      "dataType": null,
      "domain": null,
      "origin": null
    },
    "BASE": {
      "definition": "Baseline value",
      "comment": null,
      "section": "Analysis Variables",
      "mandatory": null,
      "codeList": null,
      "dataType": null,
      "domain": null,
      "origin": null
    },
    "BASEC": {
      "definition": "Baseline value (character)",
      "comment": null,
      "section": "Analysis Variables",
      "mandatory": null,
      "codeList": null,
      "dataType": null,
      "domain": null,
      "origin": null
    },
    "CHG": {
      "definition": "Change from baseline",
      "comment": null,
      "section": "Analysis Variables",
      "mandatory": null,
      "codeList": null,
      "dataType": null,
      "domain": null,
      "origin": null
    },
    "PCHG": {
      "definition": "Percent change from baseline",
      "comment": null,
      "section": "Analysis Variables",
      "mandatory": null,
      "codeList": null,
      "dataType": null,
      "domain": null,
      "origin": null
    },
    "R2BASE": {
      "definition": "The ratio from post-baseline to baseline",
      "comment": "https://phmpt.org/wp-content/uploads/2022/03/125742_S1_M5_c4591001-A-adrg.pdf",
      "section": "Analysis Variables",
      "mandatory": null,
      "codeList": null,
      "dataType": null,
      "domain": null,
      "origin": null
    },
    "BASETYPE": {
      "definition": "Baseline type",
      "comment": null,
      "section": "Analysis Variables",
      "mandatory": null,
      "codeList": null,
      "dataType": null,
      "domain": null,
      "origin": null
    },
    "ANRIND": {
      "definition": "Analysis reference range indicator",
      "comment": null,
      "section": "Analysis Variables",
      "mandatory": null,
      "codeList": null,
      "dataType": null,
      "domain": null,
      "origin": null
    },
    "ANRINDN": {
      "definition": "Analysis reference range indicator (numeric)",
      "comment": null,
      "section": "Analysis Variables",
      "mandatory": null,
      "codeList": null,
      "dataType": null,
      "domain": null,
      "origin": null
    },
    "BNRIND": {
      "definition": "Baseline reference range indicator",
      "comment": null,
      "section": "Analysis Variables",
      "mandatory": null,
      "codeList": null,
      "dataType": null,
      "domain": null,
      "origin": null
    },
    "BNRINDN": {
      "definition": "Baseline reference range indicator (numeric)",
      "comment": null,
      "section": "Analysis Variables",
      "mandatory": null,
      "codeList": null,
      "dataType": null,
      "domain": null,
      "origin": null
    },
    "ANRLO": {
      "definition": "Analysis normal range lower limit",
      "comment": null,
      "section": "Analysis Variables",
      "mandatory": null,
      "codeList": null,
      "dataType": null,
      "domain": null,
      "origin": null
    },
    "ANRLOC": {
      "definition": "Analysis normal range lower limit (character)",
      "comment": null,
      "section": "Analysis Variables",
      "mandatory": null,
      "codeList": null,
      "dataType": null,
      "domain": null,
      "origin": null
    },
    "ANRHI": {
      "definition": "Analysis normal range upper limit",
      "comment": null,
      "section": "Analysis Variables",
      "mandatory": null,
      "codeList": null,
      "dataType": null,
      "domain": null,
      "origin": null
    },
    "ANRHIC": {
      "definition": "Analysis normal range upper limit (character)",
      "comment": null,
      "section": "Analysis Variables",
      "mandatory": null,
      "codeList": null,
      "dataType": null,
      "domain": null,
      "origin": null
    },
    "NABCS": {
      "definition": "*Number of antibodies",
      "comment": "uncertain",
      "section": "Analysis Variables",
      "mandatory": null,
      "codeList": null,
      "dataType": null,
      "domain": null,
      "origin": null
    },
    "NABCSN": {
      "definition": "Number of antibodies (numeric)",
      "comment": null,
      "section": "Analysis Variables",
      "mandatory": null,
      "codeList": null,
      "dataType": null,
      "domain": null,
      "origin": null
    },
    "DTYPE": {
      "definition": "Derivation type",
      "comment": null,
      "section": "Analysis Variables",
      "mandatory": null,
      "codeList": null,
      "dataType": null,
      "domain": null,
      "origin": null
    },
    "WPBFL": {
      "definition": "Worst post-baseline flag",
      "comment": null,
      "section": "Analysis Variables",
      "mandatory": null,
      "codeList": null,
      "dataType": null,
      "domain": null,
      "origin": null
    },
    "ANL01FL": {
      "definition": "Analysis flag 01",
      "comment": null,
      "section": "Analysis Variables",
      "mandatory": null,
      "codeList": null,
      "dataType": null,
      "domain": null,
      "origin": null
    },
    "ANL02FL": {
      "definition": "Analysis flag 02",
      "comment": null,
      "section": "Analysis Variables",
      "mandatory": null,
      "codeList": null,
      "dataType": null,
      "domain": null,
      "origin": null
    },
    "ANL03FL": {
      "definition": "Analysis flag 03",
      "comment": null,
      "section": "Analysis Variables",
      "mandatory": null,
      "codeList": null,
      "dataType": null,
      "domain": null,
      "origin": null
    },
    "ANL04FL": {
      "definition": "Analysis flag 04",
      "comment": null,
      "section": "Analysis Variables",
      "mandatory": null,
      "codeList": null,
      "dataType": null,
      "domain": null,
      "origin": null
    },
    "UNSVFL": {
      "definition": "Unscheduled visit flag",
      "comment": null,
      "section": "Analysis Variables",
      "mandatory": null,
      "codeList": null,
      "dataType": null,
      "domain": null,
      "origin": null
    },
    "POBLFL": {
      "definition": "Post-baseline flag",
      "comment": null,
      "section": "Analysis Variables",
      "mandatory": null,
      "codeList": null,
      "dataType": null,
      "domain": null,
      "origin": null
    },
    "ABLFL": {
      "definition": "Baseline flag",
      "comment": null,
      "section": "Analysis Variables",
      "mandatory": null,
      "codeList": null,
      "dataType": null,
      "domain": null,
      "origin": null
    },
    "ABLPBLFL": {
      "definition": "*At baseline or post-baseline flag",
      "comment": "uncertain",
      "section": "Analysis Variables",
      "mandatory": null,
      "codeList": null,
      "dataType": null,
      "domain": null,
      "origin": null
    },
    "APSBLFL": {
      "definition": "*At or post screening baseline flag",
      "comment": "uncertain",
      "section": "Analysis Variables",
      "mandatory": null,
      "codeList": null,
      "dataType": null,
      "domain": null,
      "origin": null
    },
    "AOCCLRFL": {
      "definition": "1st occurrence within subject flag",
      "comment": "https://www.lexjansen.com/pharmasug/2017/QT/PharmaSUG-2017-QT03.pdf",
      "section": "Occurrence/Completion Flags",
      "mandatory": null,
      "codeList": null,
      "dataType": null,
      "domain": null,
      "origin": null
    },
    "AOCCL3FL": {
      "definition": "AE occurred last 3 months flag",
      "comment": null,
      "section": "Occurrence/Completion Flags",
      "mandatory": null,
      "codeList": null,
      "dataType": null,
      "domain": null,
      "origin": null
    },
    "AOCCLPFL": {
      "definition": "AE occurred last period flag",
      "comment": null,
      "section": "Occurrence/Completion Flags",
      "mandatory": null,
      "codeList": null,
      "dataType": null,
      "domain": null,
      "origin": null
    },
    "AOCCXPFL": {
      "definition": "*AE occurred except period flag",
      "comment": "uncertain",
      "section": "Occurrence/Completion Flags",
      "mandatory": null,
      "codeList": null,
      "dataType": null,
      "domain": null,
      "origin": null
    },
    "AOCCLBFL": {
      "definition": "AE occurred last baseline flag",
      "comment": null,
      "section": "Occurrence/Completion Flags",
      "mandatory": null,
      "codeList": null,
      "dataType": null,
      "domain": null,
      "origin": null
    },
    "AOCCXBFL": {
      "definition": "AE occurred except baseline flag",
      "comment": null,
      "section": "Occurrence/Completion Flags",
      "mandatory": null,
      "codeList": null,
      "dataType": null,
      "domain": null,
      "origin": null
    },
    "AOCCSRFL": {
      "definition": "AE occurred since randomization flag",
      "comment": null,
      "section": "Occurrence/Completion Flags",
      "mandatory": null,
      "codeList": null,
      "dataType": null,
      "domain": null,
      "origin": null
    },
    "AOCCS3FL": {
      "definition": "AE occurred since 3 months flag",
      "comment": null,
      "section": "Occurrence/Completion Flags",
      "mandatory": null,
      "codeList": null,
      "dataType": null,
      "domain": null,
      "origin": null
    },
    "AOCCSPFL": {
      "definition": "AE occurred since period flag",
      "comment": null,
      "section": "Occurrence/Completion Flags",
      "mandatory": null,
      "codeList": null,
      "dataType": null,
      "domain": null,
      "origin": null
    },
    "AOCCYPFL": {
      "definition": "*AE occurred year to period flag",
      "comment": "uncertain",
      "section": "Occurrence/Completion Flags",
      "mandatory": null,
      "codeList": null,
      "dataType": null,
      "domain": null,
      "origin": null
    },
    "AOCCSBFL": {
      "definition": "AE occurred since baseline flag",
      "comment": null,
      "section": "Occurrence/Completion Flags",
      "mandatory": null,
      "codeList": null,
      "dataType": null,
      "domain": null,
      "origin": null
    },
    "AOCCYBFL": {
      "definition": "*AE occurred year to baseline flag",
      "comment": "uncertain",
      "section": "Occurrence/Completion Flags",
      "mandatory": null,
      "codeList": null,
      "dataType": null,
      "domain": null,
      "origin": null
    },
    "FAOBJ": {
      "definition": "Findings about object",
      "comment": null,
      "section": "Findings Analysis Variables",
      "mandatory": null,
      "codeList": null,
      "dataType": null,
      "domain": null,
      "origin": null
    },
    "FATEST": {
      "definition": "Findings about test name",
      "comment": null,
      "section": "Findings Analysis Variables",
      "mandatory": null,
      "codeList": null,
      "dataType": null,
      "domain": null,
      "origin": null
    },
    "FATESTCD": {
      "definition": "Findings about test code",
      "comment": null,
      "section": "Findings Analysis Variables",
      "mandatory": null,
      "codeList": null,
      "dataType": null,
      "domain": null,
      "origin": null
    },
    "VSTEST": {
      "definition": "Vital signs test name",
      "comment": null,
      "section": "Findings Analysis Variables",
      "mandatory": null,
      "codeList": null,
      "dataType": null,
      "domain": null,
      "origin": null
    },
    "VSTESTCD": {
      "definition": "Vital signs test short name",
      "comment": null,
      "section": "Findings Analysis Variables",
      "mandatory": null,
      "codeList": null,
      "dataType": null,
      "domain": null,
      "origin": null
    },
    "PARCAT1": {
      "definition": "Parameter category 1",
      "comment": null,
      "section": "Findings Analysis Variables",
      "mandatory": null,
      "codeList": null,
      "dataType": null,
      "domain": null,
      "origin": null
    },
    "PARCAT1N": {
      "definition": "Parameter category 1 (numeric)",
      "comment": null,
      "section": "Findings Analysis Variables",
      "mandatory": null,
      "codeList": null,
      "dataType": null,
      "domain": null,
      "origin": null
    },
    "PARCAT2": {
      "definition": "Parameter category 2",
      "comment": null,
      "section": "Findings Analysis Variables",
      "mandatory": null,
      "codeList": null,
      "dataType": null,
      "domain": null,
      "origin": null
    },
    "PARCAT2N": {
      "definition": "Parameter category 2 (numeric)",
      "comment": null,
      "section": "Findings Analysis Variables",
      "mandatory": null,
      "codeList": null,
      "dataType": null,
      "domain": null,
      "origin": null
    },
    "FASCAT": {
      "definition": "Findings about subcategory",
      "comment": null,
      "section": "Findings Analysis Variables",
      "mandatory": null,
      "codeList": null,
      "dataType": null,
      "domain": null,
      "origin": null
    },
    "FASTRESC": {
      "definition": "Findings character result in standard format",
      "comment": null,
      "section": "Findings Analysis Variables",
      "mandatory": null,
      "codeList": null,
      "dataType": null,
      "domain": null,
      "origin": null
    },
    "VSSTRESN": {
      "definition": "Vital signs numeric result in standard units",
      "comment": null,
      "section": "Findings Analysis Variables",
      "mandatory": null,
      "codeList": null,
      "dataType": null,
      "domain": null,
      "origin": null
    },
    "SRCDOM": {
      "definition": "Source data domain",
      "comment": "ADaMIG",
      "section": "Findings Analysis Variables",
      "mandatory": null,
      "codeList": null,
      "dataType": null,
      "domain": null,
      "origin": null
    },
    "SRCVAR": {
      "definition": "Source variable",
      "comment": "IG",
      "section": "Findings Analysis Variables",
      "mandatory": null,
      "codeList": null,
      "dataType": null,
      "domain": null,
      "origin": null
    },
    "SRCSEQ": {
      "definition": "Source  sequence number",
      "comment": "IG",
      "section": "Findings Analysis Variables",
      "mandatory": null,
      "codeList": null,
      "dataType": null,
      "domain": null,
      "origin": null
    },
    "FALNKID": {
      "definition": "Findings about link identifier",
      "comment": null,
      "section": "Findings Analysis Variables",
      "mandatory": null,
      "codeList": null,
      "dataType": null,
      "domain": null,
      "origin": null
    },
    "FALNKGRP": {
      "definition": "Findings about link group",
      "comment": null,
      "section": "Findings Analysis Variables",
      "mandatory": null,
      "codeList": null,
      "dataType": null,
      "domain": null,
      "origin": null
    },
    "VSLNKID": {
      "definition": "Vital signs link identifier",
      "comment": null,
      "section": "Findings Analysis Variables",
      "mandatory": null,
      "codeList": null,
      "dataType": null,
      "domain": null,
      "origin": null
    },
    "VSLNKGRP": {
      "definition": "Vital signs link group",
      "comment": null,
      "section": "Findings Analysis Variables",
      "mandatory": null,
      "codeList": null,
      "dataType": null,
      "domain": null,
      "origin": null
    },
    "LBSEQ": {
      "definition": "Sequence number for lab test",
      "comment": null,
      "section": "Laboratory Variables",
      "mandatory": null,
      "codeList": null,
      "dataType": null,
      "domain": null,
      "origin": null
    },
    "ASEQ": {
      "definition": "Analysis sequence number",
      "comment": null,
      "section": "Laboratory Variables",
      "mandatory": null,
      "codeList": null,
      "dataType": null,
      "domain": null,
      "origin": null
    },
    "LBSPEC": {
      "definition": "Specimen type",
      "comment": null,
      "section": "Laboratory Variables",
      "mandatory": null,
      "codeList": null,
      "dataType": null,
      "domain": null,
      "origin": null
    },
    "LBCLSIG": {
      "definition": "Clinical significance",
      "comment": null,
      "section": "Laboratory Variables",
      "mandatory": null,
      "codeList": null,
      "dataType": null,
      "domain": null,
      "origin": null
    },
    "LBCLSIGN": {
      "definition": "Clinical significance (numeric)",
      "comment": null,
      "section": "Laboratory Variables",
      "mandatory": null,
      "codeList": null,
      "dataType": null,
      "domain": null,
      "origin": null
    },
    "LBSTAT": {
      "definition": "Completion status",
      "comment": null,
      "section": "Laboratory Variables",
      "mandatory": null,
      "codeList": null,
      "dataType": null,
      "domain": null,
      "origin": null
    },
    "LBREASND": {
      "definition": "Reason test not done",
      "comment": null,
      "section": "Laboratory Variables",
      "mandatory": null,
      "codeList": null,
      "dataType": null,
      "domain": null,
      "origin": null
    },
    "LBNAM": {
      "definition": "Laboratory/vendor name",
      "comment": null,
      "section": "Laboratory Variables",
      "mandatory": null,
      "codeList": null,
      "dataType": null,
      "domain": null,
      "origin": null
    },
    "LBMETHOD": {
      "definition": "Method of test",
      "comment": null,
      "section": "Laboratory Variables",
      "mandatory": null,
      "codeList": null,
      "dataType": null,
      "domain": null,
      "origin": null
    },
    "LBFAST": {
      "definition": "Fasting status",
      "comment": null,
      "section": "Laboratory Variables",
      "mandatory": null,
      "codeList": null,
      "dataType": null,
      "domain": null,
      "origin": null
    },
    "LBORRES1": {
      "definition": "*Original result 1",
      "comment": "uncertain",
      "section": "Laboratory Variables",
      "mandatory": null,
      "codeList": null,
      "dataType": null,
      "domain": null,
      "origin": null
    },
    "LBORRES2": {
      "definition": "Original result 2",
      "comment": null,
      "section": "Laboratory Variables",
      "mandatory": null,
      "codeList": null,
      "dataType": null,
      "domain": null,
      "origin": null
    },
    "LBLOINC1": {
      "definition": "LOINC code 1",
      "comment": null,
      "section": "Laboratory Variables",
      "mandatory": null,
      "codeList": null,
      "dataType": null,
      "domain": null,
      "origin": null
    },
    "LBLOINC2": {
      "definition": "LOINC code 2",
      "comment": null,
      "section": "Laboratory Variables",
      "mandatory": null,
      "codeList": null,
      "dataType": null,
      "domain": null,
      "origin": null
    },
    "RBB": {
      "definition": "*Reference baseline band",
      "comment": "uncertain",
      "section": "Laboratory Variables",
      "mandatory": null,
      "codeList": null,
      "dataType": null,
      "domain": null,
      "origin": null
    },
    "RBB2": {
      "definition": "Reference baseline band 2",
      "comment": null,
      "section": "Laboratory Variables",
      "mandatory": null,
      "codeList": null,
      "dataType": null,
      "domain": null,
      "origin": null
    },
    "LBDTC": {
      "definition": "Date/time of specimen collection",
      "comment": null,
      "section": "Laboratory Variables",
      "mandatory": null,
      "codeList": null,
      "dataType": null,
      "domain": null,
      "origin": null
    },
    "ATM": {
      "definition": "Analysis time",
      "comment": null,
      "section": "Laboratory Variables",
      "mandatory": null,
      "codeList": null,
      "dataType": null,
      "domain": null,
      "origin": null
    },
    "LBDY": {
      "definition": "Study day of specimen collection",
      "comment": null,
      "section": "Laboratory Variables",
      "mandatory": null,
      "codeList": null,
      "dataType": null,
      "domain": null,
      "origin": null
    },
    "LBREFID": {
      "definition": "Laboratory reference identifier",
      "comment": null,
      "section": "Laboratory Variables",
      "mandatory": null,
      "codeList": null,
      "dataType": null,
      "domain": null,
      "origin": null
    },
    "LBTESTCD": {
      "definition": "Lab test or examination short name",
      "comment": null,
      "section": "Laboratory Variables",
      "mandatory": null,
      "codeList": null,
      "dataType": null,
      "domain": null,
      "origin": null
    },
    "LBTEST": {
      "definition": "Lab test or examination name",
      "comment": null,
      "section": "Laboratory Variables",
      "mandatory": null,
      "codeList": null,
      "dataType": null,
      "domain": null,
      "origin": null
    },
    "LBCAT": {
      "definition": "Category for lab test",
      "comment": null,
      "section": "Laboratory Variables",
      "mandatory": null,
      "codeList": null,
      "dataType": null,
      "domain": null,
      "origin": null
    },
    "LBSCAT": {
      "definition": "Subcategory for lab test",
      "comment": null,
      "section": "Laboratory Variables",
      "mandatory": null,
      "codeList": null,
      "dataType": null,
      "domain": null,
      "origin": null
    },
    "LBORRES": {
      "definition": "Result or finding in original units",
      "comment": null,
      "section": "Laboratory Variables",
      "mandatory": null,
      "codeList": null,
      "dataType": null,
      "domain": null,
      "origin": null
    },
    "LBORRESU": {
      "definition": "Original units",
      "comment": null,
      "section": "Laboratory Variables",
      "mandatory": null,
      "codeList": null,
      "dataType": null,
      "domain": null,
      "origin": null
    },
    "LBORNRLO": {
      "definition": "Reference range lower limit in original units",
      "comment": null,
      "section": "Laboratory Variables",
      "mandatory": null,
      "codeList": null,
      "dataType": null,
      "domain": null,
      "origin": null
    },
    "LBORNRHI": {
      "definition": "Reference range upper limit in original units",
      "comment": null,
      "section": "Laboratory Variables",
      "mandatory": null,
      "codeList": null,
      "dataType": null,
      "domain": null,
      "origin": null
    },
    "LBSTRESC": {
      "definition": "Character result in standard format",
      "comment": null,
      "section": "Laboratory Variables",
      "mandatory": null,
      "codeList": null,
      "dataType": null,
      "domain": null,
      "origin": null
    },
    "LBSTRESN": {
      "definition": "Numeric result in standard units",
      "comment": null,
      "section": "Laboratory Variables",
      "mandatory": null,
      "codeList": null,
      "dataType": null,
      "domain": null,
      "origin": null
    },
    "LBSTRESU": {
      "definition": "Standard units",
      "comment": null,
      "section": "Laboratory Variables",
      "mandatory": null,
      "codeList": null,
      "dataType": null,
      "domain": null,
      "origin": null
    },
    "LBSTNRLO": {
      "definition": "Reference range lower limit in standard units",
      "comment": null,
      "section": "Laboratory Variables",
      "mandatory": null,
      "codeList": null,
      "dataType": null,
      "domain": null,
      "origin": null
    },
    "LBSTNRHI": {
      "definition": "Reference range upper limit in standard units",
      "comment": null,
      "section": "Laboratory Variables",
      "mandatory": null,
      "codeList": null,
      "dataType": null,
      "domain": null,
      "origin": null
    },
    "LBSTNRC": {
      "definition": "Reference range for character results",
      "comment": null,
      "section": "Laboratory Variables",
      "mandatory": null,
      "codeList": null,
      "dataType": null,
      "domain": null,
      "origin": null
    },
    "LBNRIND": {
      "definition": "Reference range indicator",
      "comment": null,
      "section": "Laboratory Variables",
      "mandatory": null,
      "codeList": null,
      "dataType": null,
      "domain": null,
      "origin": null
    },
    "LBLOINC": {
      "definition": "LOINC code",
      "comment": null,
      "section": "Laboratory Variables",
      "mandatory": null,
      "codeList": null,
      "dataType": null,
      "domain": null,
      "origin": null
    },
    "LBBLFL": {
      "definition": "Baseline flag",
      "comment": null,
      "section": "Laboratory Variables",
      "mandatory": null,
      "codeList": null,
      "dataType": null,
      "domain": null,
      "origin": null
    },
    "LBSPID": {
      "definition": "Lab sponsor-defined identifier",
      "comment": null,
      "section": "Laboratory Variables",
      "mandatory": null,
      "codeList": null,
      "dataType": null,
      "domain": null,
      "origin": null
    },
    "ISLLOQ": {
      "definition": "Lower limit of quantitation (COVID-19 S1 IgG (U/mL)) = 1.2665;",
      "comment": null,
      "section": "Laboratory Variables",
      "mandatory": null,
      "codeList": null,
      "dataType": null,
      "domain": null,
      "origin": null
    },
    "AVISIT": {
      "definition": "Analysis visit",
      "comment": null,
      "section": "Visit Variables",
      "mandatory": null,
      "codeList": null,
      "dataType": null,
      "domain": null,
      "origin": null
    },
    "AVISITN": {
      "definition": "Analysis visit (numeric)",
      "comment": null,
      "section": "Visit Variables",
      "mandatory": null,
      "codeList": null,
      "dataType": null,
      "domain": null,
      "origin": null
    },
    "VISIT": {
      "definition": "Protocol-defined visit label",
      "comment": null,
      "section": "Visit Variables",
      "mandatory": null,
      "codeList": null,
      "dataType": null,
      "domain": null,
      "origin": null
    },
    "VISITNUM": {
      "definition": "Clinical encounter number",
      "comment": null,
      "section": "Visit Variables",
      "mandatory": null,
      "codeList": null,
      "dataType": null,
      "domain": null,
      "origin": null
    },
    "VISITDY": {
      "definition": "Planned study day of visit",
      "comment": null,
      "section": "Visit Variables",
      "mandatory": null,
      "codeList": null,
      "dataType": null,
      "domain": null,
      "origin": null
    },
    "COMMENT1": {
      "definition": "Comment 1",
      "comment": null,
      "section": "Comments Variables",
      "mandatory": null,
      "codeList": null,
      "dataType": null,
      "domain": null,
      "origin": null
    },
    "COMEVAL1": {
      "definition": "Comment evaluator 1",
      "comment": null,
      "section": "Comments Variables",
      "mandatory": null,
      "codeList": null,
      "dataType": null,
      "domain": null,
      "origin": null
    },
    "COMMENT2": {
      "definition": "Comment 2",
      "comment": null,
      "section": "Comments Variables",
      "mandatory": null,
      "codeList": null,
      "dataType": null,
      "domain": null,
      "origin": null
    },
    "COMEVAL2": {
      "definition": "Comment evaluator 2",
      "comment": null,
      "section": "Comments Variables",
      "mandatory": null,
      "codeList": null,
      "dataType": null,
      "domain": null,
      "origin": null
    },
    "EXPPROT1": {
      "definition": "*Exposure protocol 1",
      "comment": "uncertain",
      "section": "Protocol/Study Variables",
      "mandatory": null,
      "codeList": null,
      "dataType": null,
      "domain": null,
      "origin": null
    },
    "PROTVER1": {
      "definition": "Protocol version 1",
      "comment": null,
      "section": "Protocol/Study Variables",
      "mandatory": null,
      "codeList": null,
      "dataType": null,
      "domain": null,
      "origin": null
    },
    "PROTVER2": {
      "definition": "Protocol version 2",
      "comment": null,
      "section": "Protocol/Study Variables",
      "mandatory": null,
      "codeList": null,
      "dataType": null,
      "domain": null,
      "origin": null
    },
    "PROTVER3": {
      "definition": "Protocol version 3",
      "comment": null,
      "section": "Protocol/Study Variables",
      "mandatory": null,
      "codeList": null,
      "dataType": null,
      "domain": null,
      "origin": null
    },
    "PROTVER4": {
      "definition": "Protocol version 4",
      "comment": null,
      "section": "Protocol/Study Variables",
      "mandatory": null,
      "codeList": null,
      "dataType": null,
      "domain": null,
      "origin": null
    },
    "CRIT1": {
      "definition": "Criterion 1",
      "comment": null,
      "section": "Protocol/Study Variables",
      "mandatory": null,
      "codeList": null,
      "dataType": null,
      "domain": null,
      "origin": null
    },
    "CRIT1FL": {
      "definition": "Criterion 1 flag",
      "comment": null,
      "section": "Protocol/Study Variables",
      "mandatory": null,
      "codeList": null,
      "dataType": null,
      "domain": null,
      "origin": null
    },
    "CRIT1FN": {
      "definition": "Criterion 1 flag (numeric)",
      "comment": null,
      "section": "Protocol/Study Variables",
      "mandatory": null,
      "codeList": null,
      "dataType": null,
      "domain": null,
      "origin": null
    },
    "EOSSTT": {
      "definition": "End of study status",
      "comment": null,
      "section": "Study Status Variables",
      "mandatory": null,
      "codeList": null,
      "dataType": null,
      "domain": null,
      "origin": null
    },
    "EOSDT": {
      "definition": "End of study date",
      "comment": null,
      "section": "Study Status Variables",
      "mandatory": null,
      "codeList": null,
      "dataType": null,
      "domain": null,
      "origin": null
    },
    "EOFUDT": {
      "definition": "End of follow-up date",
      "comment": null,
      "section": "Study Status Variables",
      "mandatory": null,
      "codeList": null,
      "dataType": null,
      "domain": null,
      "origin": null
    },
    "DCSREAS": {
      "definition": "Discontinuation reason",
      "comment": null,
      "section": "Study Status Variables",
      "mandatory": null,
      "codeList": null,
      "dataType": null,
      "domain": null,
      "origin": null
    },
    "DCSREASP": {
      "definition": "Discontinuation reason (specify)",
      "comment": null,
      "section": "Study Status Variables",
      "mandatory": null,
      "codeList": null,
      "dataType": null,
      "domain": null,
      "origin": null
    },
    "DSEPRELI": {
      "definition": "*Disposition episode related",
      "comment": "uncertain",
      "section": "Study Status Variables",
      "mandatory": null,
      "codeList": null,
      "dataType": null,
      "domain": null,
      "origin": null
    },
    "EOSDCRS": {
      "definition": "End of study discontinuation reason",
      "comment": null,
      "section": "Study Status Variables",
      "mandatory": null,
      "codeList": null,
      "dataType": null,
      "domain": null,
      "origin": null
    },
    "EOTDCRS": {
      "definition": "End of treatment discontinuation reason",
      "comment": null,
      "section": "Study Status Variables",
      "mandatory": null,
      "codeList": null,
      "dataType": null,
      "domain": null,
      "origin": null
    },
    "PREV_TSN": {
      "definition": "Previous treatment sequence number",
      "comment": null,
      "section": "Previous Treatment Variables",
      "mandatory": null,
      "codeList": null,
      "dataType": null,
      "domain": null,
      "origin": null
    },
    "VSSEQ": {
      "definition": "Sequence number for vital sign",
      "comment": null,
      "section": "Vital Signs Variables",
      "mandatory": null,
      "codeList": null,
      "dataType": null,
      "domain": null,
      "origin": null
    },
    "VSPOS": {
      "definition": "Vital signs position",
      "comment": null,
      "section": "Vital Signs Variables",
      "mandatory": null,
      "codeList": null,
      "dataType": null,
      "domain": null,
      "origin": null
    },
    "VSCLSIG": {
      "definition": "Clinical significance",
      "comment": null,
      "section": "Vital Signs Variables",
      "mandatory": null,
      "codeList": null,
      "dataType": null,
      "domain": null,
      "origin": null
    },
    "VSCLSIGN": {
      "definition": "Clinical significance (numeric)",
      "comment": null,
      "section": "Vital Signs Variables",
      "mandatory": null,
      "codeList": null,
      "dataType": null,
      "domain": null,
      "origin": null
    },
    "VSSTAT": {
      "definition": "Completion status",
      "comment": null,
      "section": "Vital Signs Variables",
      "mandatory": null,
      "codeList": null,
      "dataType": null,
      "domain": null,
      "origin": null
    },
    "VSREASND": {
      "definition": "Reason not done",
      "comment": null,
      "section": "Vital Signs Variables",
      "mandatory": null,
      "codeList": null,
      "dataType": null,
      "domain": null,
      "origin": null
    },
    "VSLOC": {
      "definition": "Location of vital signs measurement",
      "comment": null,
      "section": "Vital Signs Variables",
      "mandatory": null,
      "codeList": null,
      "dataType": null,
      "domain": null,
      "origin": null
    },
    "VSLAT": {
      "definition": "Laterality",
      "comment": null,
      "section": "Vital Signs Variables",
      "mandatory": null,
      "codeList": null,
      "dataType": null,
      "domain": null,
      "origin": null
    },
    "VSDY": {
      "definition": "Study day of vital signs",
      "comment": null,
      "section": "Vital Signs Variables",
      "mandatory": null,
      "codeList": null,
      "dataType": null,
      "domain": null,
      "origin": null
    },
    "VSTPTNUM": {
      "definition": "numeric identifier of when an observation is planned to occur.",
      "comment": null,
      "section": "Vital Signs Variables",
      "mandatory": null,
      "codeList": null,
      "dataType": null,
      "domain": null,
      "origin": null
    },
    "VSRFTDTC": {
      "definition": "Reference date/time",
      "comment": null,
      "section": "Vital Signs Variables",
      "mandatory": null,
      "codeList": null,
      "dataType": null,
      "domain": null,
      "origin": null
    },
    "VSCAT": {
      "definition": "Category for vital signs",
      "comment": null,
      "section": "Vital Signs Variables",
      "mandatory": null,
      "codeList": null,
      "dataType": null,
      "domain": null,
      "origin": null
    },
    "VSSCAT": {
      "definition": "Subcategory for vital signs",
      "comment": null,
      "section": "Vital Signs Variables",
      "mandatory": null,
      "codeList": null,
      "dataType": null,
      "domain": null,
      "origin": null
    },
    "VSORRES": {
      "definition": "Result or finding in original units",
      "comment": null,
      "section": "Vital Signs Variables",
      "mandatory": null,
      "codeList": null,
      "dataType": null,
      "domain": null,
      "origin": null
    },
    "VSORRESU": {
      "definition": "Original units",
      "comment": null,
      "section": "Vital Signs Variables",
      "mandatory": null,
      "codeList": null,
      "dataType": null,
      "domain": null,
      "origin": null
    },
    "VSSTRESC": {
      "definition": "Character result in standard format",
      "comment": null,
      "section": "Vital Signs Variables",
      "mandatory": null,
      "codeList": null,
      "dataType": null,
      "domain": null,
      "origin": null
    },
    "VSSTRESU": {
      "definition": "Standard units",
      "comment": null,
      "section": "Vital Signs Variables",
      "mandatory": null,
      "codeList": null,
      "dataType": null,
      "domain": null,
      "origin": null
    },
    "VSBLFL": {
      "definition": "Baseline flag",
      "comment": null,
      "section": "Vital Signs Variables",
      "mandatory": null,
      "codeList": null,
      "dataType": null,
      "domain": null,
      "origin": null
    },
    "VSREFID": {
      "definition": "Reference identifier",
      "comment": null,
      "section": "Vital Signs Variables",
      "mandatory": null,
      "codeList": null,
      "dataType": null,
      "domain": null,
      "origin": null
    },
    "VSSPID": {
      "definition": "Sponsor-defined identifier",
      "comment": null,
      "section": "Vital Signs Variables",
      "mandatory": null,
      "codeList": null,
      "dataType": null,
      "domain": null,
      "origin": null
    },
    "VSDRVFL": {
      "definition": "Derived flag",
      "comment": null,
      "section": "Vital Signs Variables",
      "mandatory": null,
      "codeList": null,
      "dataType": null,
      "domain": null,
      "origin": null
    },
    "VSEVAL": {
      "definition": "Evaluator",
      "comment": null,
      "section": "Vital Signs Variables",
      "mandatory": null,
      "codeList": null,
      "dataType": null,
      "domain": null,
      "origin": null
    },
    "VSEVLINT": {
      "definition": "Evaluation interval",
      "comment": null,
      "section": "Vital Signs Variables",
      "mandatory": null,
      "codeList": null,
      "dataType": null,
      "domain": null,
      "origin": null
    },
    "VSEVINTX": {
      "definition": "Evaluation interval text",
      "comment": null,
      "section": "Vital Signs Variables",
      "mandatory": null,
      "codeList": null,
      "dataType": null,
      "domain": null,
      "origin": null
    },
    "DOMAIN": {
      "definition": "Two-character abbreviation for the domain",
      "comment": null,
      "section": "Domain Variable",
      "mandatory": null,
      "codeList": null,
      "dataType": null,
      "domain": null,
      "origin": null
    },
    "CMSEQ": {
      "definition": "Sequence number for concomitant med",
      "comment": null,
      "section": "Concomitant Medication Variables",
      "mandatory": null,
      "codeList": null,
      "dataType": null,
      "domain": null,
      "origin": null
    },
    "CMTRT": {
      "definition": "Reported name of medication",
      "comment": null,
      "section": "Concomitant Medication Variables",
      "mandatory": null,
      "codeList": null,
      "dataType": null,
      "domain": null,
      "origin": null
    },
    "CMMODIFY": {
      "definition": "Modified medication name",
      "comment": null,
      "section": "Concomitant Medication Variables",
      "mandatory": null,
      "codeList": null,
      "dataType": null,
      "domain": null,
      "origin": null
    },
    "CMDECOD": {
      "definition": "Standardized medication name",
      "comment": null,
      "section": "Concomitant Medication Variables",
      "mandatory": null,
      "codeList": null,
      "dataType": null,
      "domain": null,
      "origin": null
    },
    "CMINDC": {
      "definition": "Indication for medication",
      "comment": null,
      "section": "Concomitant Medication Variables",
      "mandatory": null,
      "codeList": null,
      "dataType": null,
      "domain": null,
      "origin": null
    },
    "CMDOSTXT": {
      "definition": "Dose text",
      "comment": null,
      "section": "Concomitant Medication Variables",
      "mandatory": null,
      "codeList": null,
      "dataType": null,
      "domain": null,
      "origin": null
    },
    "CMDOSU": {
      "definition": "Dose units",
      "comment": null,
      "section": "Concomitant Medication Variables",
      "mandatory": null,
      "codeList": null,
      "dataType": null,
      "domain": null,
      "origin": null
    },
    "CMDOSFRQ": {
      "definition": "Dosing frequency per interval",
      "comment": null,
      "section": "Concomitant Medication Variables",
      "mandatory": null,
      "codeList": null,
      "dataType": null,
      "domain": null,
      "origin": null
    },
    "CMROUTE": {
      "definition": "Route of administration",
      "comment": null,
      "section": "Concomitant Medication Variables",
      "mandatory": null,
      "codeList": null,
      "dataType": null,
      "domain": null,
      "origin": null
    },
    "CMSTDTC": {
      "definition": "Start date/time of medication",
      "comment": null,
      "section": "Concomitant Medication Variables",
      "mandatory": null,
      "codeList": null,
      "dataType": null,
      "domain": null,
      "origin": null
    },
    "CMENDTC": {
      "definition": "End date/time of medication",
      "comment": null,
      "section": "Concomitant Medication Variables",
      "mandatory": null,
      "codeList": null,
      "dataType": null,
      "domain": null,
      "origin": null
    },
    "CMSTDY": {
      "definition": "Study day of start of medication",
      "comment": null,
      "section": "Concomitant Medication Variables",
      "mandatory": null,
      "codeList": null,
      "dataType": null,
      "domain": null,
      "origin": null
    },
    "CMENDY": {
      "definition": "Study day of end of medication",
      "comment": null,
      "section": "Concomitant Medication Variables",
      "mandatory": null,
      "codeList": null,
      "dataType": null,
      "domain": null,
      "origin": null
    },
    "CMSTRTPT": {
      "definition": "Start reference time point",
      "comment": null,
      "section": "Concomitant Medication Variables",
      "mandatory": null,
      "codeList": null,
      "dataType": null,
      "domain": null,
      "origin": null
    },
    "CMSTTPT": {
      "definition": "Start time point",
      "comment": null,
      "section": "Concomitant Medication Variables",
      "mandatory": null,
      "codeList": null,
      "dataType": null,
      "domain": null,
      "origin": null
    },
    "CMENRTPT": {
      "definition": "End reference time point",
      "comment": null,
      "section": "Concomitant Medication Variables",
      "mandatory": null,
      "codeList": null,
      "dataType": null,
      "domain": null,
      "origin": null
    },
    "CMENTPT": {
      "definition": "End time point",
      "comment": null,
      "section": "Concomitant Medication Variables",
      "mandatory": null,
      "codeList": null,
      "dataType": null,
      "domain": null,
      "origin": null
    },
    "CMSPID": {
      "definition": "Sponsor-defined identifier",
      "comment": null,
      "section": "Concomitant Medication Variables",
      "mandatory": null,
      "codeList": null,
      "dataType": null,
      "domain": null,
      "origin": null
    },
    "CMCAT": {
      "definition": "Category for medication",
      "comment": null,
      "section": "Concomitant Medication Variables",
      "mandatory": null,
      "codeList": null,
      "dataType": null,
      "domain": null,
      "origin": null
    },
    "CMSCAT": {
      "definition": "Subcategory for medication",
      "comment": null,
      "section": "Concomitant Medication Variables",
      "mandatory": null,
      "codeList": null,
      "dataType": null,
      "domain": null,
      "origin": null
    },
    "CMCLAS": {
      "definition": "Medication class",
      "comment": null,
      "section": "Concomitant Medication Variables",
      "mandatory": null,
      "codeList": null,
      "dataType": null,
      "domain": null,
      "origin": null
    },
    "CMCLASCD": {
      "definition": "Medication class code",
      "comment": null,
      "section": "Concomitant Medication Variables",
      "mandatory": null,
      "codeList": null,
      "dataType": null,
      "domain": null,
      "origin": null
    },
    "CMDOSE": {
      "definition": "Dose per administration",
      "comment": null,
      "section": "Concomitant Medication Variables",
      "mandatory": null,
      "codeList": null,
      "dataType": null,
      "domain": null,
      "origin": null
    },
    "RDOMAIN": {
      "definition": "Related domain",
      "comment": null,
      "section": "Comments/Relationships Variables",
      "mandatory": null,
      "codeList": null,
      "dataType": null,
      "domain": null,
      "origin": null
    },
    "COSEQ": {
      "definition": "Sequence number for comment",
      "comment": null,
      "section": "Comments/Relationships Variables",
      "mandatory": null,
      "codeList": null,
      "dataType": null,
      "domain": null,
      "origin": null
    },
    "IDVAR": {
      "definition": "Identifying variable",
      "comment": null,
      "section": "Comments/Relationships Variables",
      "mandatory": null,
      "codeList": null,
      "dataType": null,
      "domain": null,
      "origin": null
    },
    "IDVARVAL": {
      "definition": "Identifying variable value",
      "comment": null,
      "section": "Comments/Relationships Variables",
      "mandatory": null,
      "codeList": null,
      "dataType": null,
      "domain": null,
      "origin": null
    },
    "COREF": {
      "definition": "Comment reference",
      "comment": null,
      "section": "Comments/Relationships Variables",
      "mandatory": null,
      "codeList": null,
      "dataType": null,
      "domain": null,
      "origin": null
    },
    "COVAL": {
      "definition": "Comment value",
      "comment": null,
      "section": "Comments/Relationships Variables",
      "mandatory": null,
      "codeList": null,
      "dataType": null,
      "domain": null,
      "origin": null
    },
    "COVAL1": {
      "definition": "Comment value 1",
      "comment": null,
      "section": "Comments/Relationships Variables",
      "mandatory": null,
      "codeList": null,
      "dataType": null,
      "domain": null,
      "origin": null
    },
    "COEVAL": {
      "definition": "Comment evaluator",
      "comment": null,
      "section": "Comments/Relationships Variables",
      "mandatory": null,
      "codeList": null,
      "dataType": null,
      "domain": null,
      "origin": null
    },
    "CODTC": {
      "definition": "Date/time of comment",
      "comment": null,
      "section": "Comments/Relationships Variables",
      "mandatory": null,
      "codeList": null,
      "dataType": null,
      "domain": null,
      "origin": null
    },
    "CODY": {
      "definition": "Study day of comment",
      "comment": null,
      "section": "Comments/Relationships Variables",
      "mandatory": null,
      "codeList": null,
      "dataType": null,
      "domain": null,
      "origin": null
    },
    "DSSEQ": {
      "definition": "Sequence number for disposition",
      "comment": null,
      "section": "Disposition Variables",
      "mandatory": null,
      "codeList": null,
      "dataType": null,
      "domain": null,
      "origin": null
    },
    "DSTERM": {
      "definition": "Reported term for disposition event",
      "comment": null,
      "section": "Disposition Variables",
      "mandatory": null,
      "codeList": null,
      "dataType": null,
      "domain": null,
      "origin": null
    },
    "DSDECOD": {
      "definition": "Standardized disposition term",
      "comment": null,
      "section": "Disposition Variables",
      "mandatory": null,
      "codeList": null,
      "dataType": null,
      "domain": null,
      "origin": null
    },
    "DSCAT": {
      "definition": "Category for disposition event",
      "comment": null,
      "section": "Disposition Variables",
      "mandatory": null,
      "codeList": null,
      "dataType": null,
      "domain": null,
      "origin": null
    },
    "DSSCAT": {
      "definition": "Subcategory for disposition event",
      "comment": null,
      "section": "Disposition Variables",
      "mandatory": null,
      "codeList": null,
      "dataType": null,
      "domain": null,
      "origin": null
    },
    "DSSTDTC": {
      "definition": "Start date/time of disposition event",
      "comment": null,
      "section": "Disposition Variables",
      "mandatory": null,
      "codeList": null,
      "dataType": null,
      "domain": null,
      "origin": null
    },
    "DSSTDY": {
      "definition": "Study day of disposition event",
      "comment": null,
      "section": "Disposition Variables",
      "mandatory": null,
      "codeList": null,
      "dataType": null,
      "domain": null,
      "origin": null
    },
    "DSREFID": {
      "definition": "Reference identifier",
      "comment": null,
      "section": "Disposition Variables",
      "mandatory": null,
      "codeList": null,
      "dataType": null,
      "domain": null,
      "origin": null
    },
    "DSDTC": {
      "definition": "Date/time of disposition",
      "comment": null,
      "section": "Disposition Variables",
      "mandatory": null,
      "codeList": null,
      "dataType": null,
      "domain": null,
      "origin": null
    },
    "DSDY": {
      "definition": "Study day of disposition",
      "comment": null,
      "section": "Disposition Variables",
      "mandatory": null,
      "codeList": null,
      "dataType": null,
      "domain": null,
      "origin": null
    },
    "DSPHASE": {
      "definition": "Disposition phase",
      "comment": null,
      "section": "Disposition Variables",
      "mandatory": null,
      "codeList": null,
      "dataType": null,
      "domain": null,
      "origin": null
    },
    "DSPHASEN": {
      "definition": "Disposition phase (numeric)",
      "comment": null,
      "section": "Disposition Variables",
      "mandatory": null,
      "codeList": null,
      "dataType": null,
      "domain": null,
      "origin": null
    },
    "DSDECODN": {
      "definition": "Disposition decode (numeric)",
      "comment": null,
      "section": "Disposition Variables",
      "mandatory": null,
      "codeList": null,
      "dataType": null,
      "domain": null,
      "origin": null
    },
    "DSRANGRP": {
      "definition": "*Disposition randomization group",
      "comment": "uncertain",
      "section": "Disposition Variables",
      "mandatory": null,
      "codeList": null,
      "dataType": null,
      "domain": null,
      "origin": null
    },
    "DVSEQ": {
      "definition": "Sequence number for protocol deviation",
      "comment": null,
      "section": "Protocol Deviations Variables",
      "mandatory": null,
      "codeList": null,
      "dataType": null,
      "domain": null,
      "origin": null
    },
    "DVREFID": {
      "definition": "Reference identifier",
      "comment": null,
      "section": "Protocol Deviations Variables",
      "mandatory": null,
      "codeList": null,
      "dataType": null,
      "domain": null,
      "origin": null
    },
    "DVTERM": {
      "definition": "Reported term for protocol deviation",
      "comment": null,
      "section": "Protocol Deviations Variables",
      "mandatory": null,
      "codeList": null,
      "dataType": null,
      "domain": null,
      "origin": null
    },
    "DVDECOD": {
      "definition": "Standardized protocol deviation term",
      "comment": null,
      "section": "Protocol Deviations Variables",
      "mandatory": null,
      "codeList": null,
      "dataType": null,
      "domain": null,
      "origin": null
    },
    "DVSTDTC": {
      "definition": "Start date/time of deviation",
      "comment": null,
      "section": "Protocol Deviations Variables",
      "mandatory": null,
      "codeList": null,
      "dataType": null,
      "domain": null,
      "origin": null
    },
    "DVSTDY": {
      "definition": "Study day of deviation",
      "comment": null,
      "section": "Protocol Deviations Variables",
      "mandatory": null,
      "codeList": null,
      "dataType": null,
      "domain": null,
      "origin": null
    },
    "DVSPID": {
      "definition": "Sponsor-defined identifier",
      "comment": null,
      "section": "Protocol Deviations Variables",
      "mandatory": null,
      "codeList": null,
      "dataType": null,
      "domain": null,
      "origin": null
    },
    "DVCAT": {
      "definition": "Category for deviation",
      "comment": null,
      "section": "Protocol Deviations Variables",
      "mandatory": null,
      "codeList": null,
      "dataType": null,
      "domain": null,
      "origin": null
    },
    "ECSEQ": {
      "definition": "Sequence number for exposure as collected",
      "comment": null,
      "section": "Exposure Variables",
      "mandatory": null,
      "codeList": null,
      "dataType": null,
      "domain": null,
      "origin": null
    },
    "ECTRT": {
      "definition": "Name of treatment",
      "comment": null,
      "section": "Exposure Variables",
      "mandatory": null,
      "codeList": null,
      "dataType": null,
      "domain": null,
      "origin": null
    },
    "ECPRESP": {
      "definition": "Pre-specified",
      "comment": null,
      "section": "Exposure Variables",
      "mandatory": null,
      "codeList": null,
      "dataType": null,
      "domain": null,
      "origin": null
    },
    "ECOCCUR": {
      "definition": "Occurrence",
      "comment": null,
      "section": "Exposure Variables",
      "mandatory": null,
      "codeList": null,
      "dataType": null,
      "domain": null,
      "origin": null
    },
    "ECDOSE": {
      "definition": "Dose",
      "comment": null,
      "section": "Exposure Variables",
      "mandatory": null,
      "codeList": null,
      "dataType": null,
      "domain": null,
      "origin": null
    },
    "ECDOSU": {
      "definition": "Dose units",
      "comment": null,
      "section": "Exposure Variables",
      "mandatory": null,
      "codeList": null,
      "dataType": null,
      "domain": null,
      "origin": null
    },
    "ECDOSFRM": {
      "definition": "Dose form",
      "comment": null,
      "section": "Exposure Variables",
      "mandatory": null,
      "codeList": null,
      "dataType": null,
      "domain": null,
      "origin": null
    },
    "ECROUTE": {
      "definition": "Route of administration",
      "comment": null,
      "section": "Exposure Variables",
      "mandatory": null,
      "codeList": null,
      "dataType": null,
      "domain": null,
      "origin": null
    },
    "ECLOC": {
      "definition": "Location of dose administration",
      "comment": null,
      "section": "Exposure Variables",
      "mandatory": null,
      "codeList": null,
      "dataType": null,
      "domain": null,
      "origin": null
    },
    "ECLAT": {
      "definition": "Laterality",
      "comment": null,
      "section": "Exposure Variables",
      "mandatory": null,
      "codeList": null,
      "dataType": null,
      "domain": null,
      "origin": null
    },
    "ECDIR": {
      "definition": "Direction",
      "comment": null,
      "section": "Exposure Variables",
      "mandatory": null,
      "codeList": null,
      "dataType": null,
      "domain": null,
      "origin": null
    },
    "ECSTDTC": {
      "definition": "Start date/time of treatment",
      "comment": null,
      "section": "Exposure Variables",
      "mandatory": null,
      "codeList": null,
      "dataType": null,
      "domain": null,
      "origin": null
    },
    "ECENDTC": {
      "definition": "End date/time of treatment",
      "comment": null,
      "section": "Exposure Variables",
      "mandatory": null,
      "codeList": null,
      "dataType": null,
      "domain": null,
      "origin": null
    },
    "ECSTDY": {
      "definition": "Study day of start of treatment",
      "comment": null,
      "section": "Exposure Variables",
      "mandatory": null,
      "codeList": null,
      "dataType": null,
      "domain": null,
      "origin": null
    },
    "ECENDY": {
      "definition": "Study day of end of treatment",
      "comment": null,
      "section": "Exposure Variables",
      "mandatory": null,
      "codeList": null,
      "dataType": null,
      "domain": null,
      "origin": null
    },
    "ECLNKID": {
      "definition": "Link identifier",
      "comment": null,
      "section": "Exposure Variables",
      "mandatory": null,
      "codeList": null,
      "dataType": null,
      "domain": null,
      "origin": null
    },
    "ECLNKGRP": {
      "definition": "Link group",
      "comment": null,
      "section": "Exposure Variables",
      "mandatory": null,
      "codeList": null,
      "dataType": null,
      "domain": null,
      "origin": null
    },
    "ECMOOD": {
      "definition": "Mood",
      "comment": null,
      "section": "Exposure Variables",
      "mandatory": null,
      "codeList": null,
      "dataType": null,
      "domain": null,
      "origin": null
    },
    "ECCAT": {
      "definition": "Category",
      "comment": null,
      "section": "Exposure Variables",
      "mandatory": null,
      "codeList": null,
      "dataType": null,
      "domain": null,
      "origin": null
    },
    "ECSCAT": {
      "definition": "Subcategory",
      "comment": null,
      "section": "Exposure Variables",
      "mandatory": null,
      "codeList": null,
      "dataType": null,
      "domain": null,
      "origin": null
    },
    "ECADJ": {
      "definition": "Adjustment",
      "comment": null,
      "section": "Exposure Variables",
      "mandatory": null,
      "codeList": null,
      "dataType": null,
      "domain": null,
      "origin": null
    },
    "ECTPTREF": {
      "definition": "Time point reference",
      "comment": null,
      "section": "Exposure Variables",
      "mandatory": null,
      "codeList": null,
      "dataType": null,
      "domain": null,
      "origin": null
    },
    "EGSEQ": {
      "definition": "Sequence number for ECG",
      "comment": null,
      "section": "ECG Variables",
      "mandatory": null,
      "codeList": null,
      "dataType": null,
      "domain": null,
      "origin": null
    },
    "EGTESTCD": {
      "definition": "ECG test code",
      "comment": null,
      "section": "ECG Variables",
      "mandatory": null,
      "codeList": null,
      "dataType": null,
      "domain": null,
      "origin": null
    },
    "EGTEST": {
      "definition": "ECG test name",
      "comment": null,
      "section": "ECG Variables",
      "mandatory": null,
      "codeList": null,
      "dataType": null,
      "domain": null,
      "origin": null
    },
    "EGCAT": {
      "definition": "Category for ECG",
      "comment": null,
      "section": "ECG Variables",
      "mandatory": null,
      "codeList": null,
      "dataType": null,
      "domain": null,
      "origin": null
    },
    "EGPOS": {
      "definition": "ECG position",
      "comment": null,
      "section": "ECG Variables",
      "mandatory": null,
      "codeList": null,
      "dataType": null,
      "domain": null,
      "origin": null
    },
    "EGORRES": {
      "definition": "Result or finding in original units",
      "comment": null,
      "section": "ECG Variables",
      "mandatory": null,
      "codeList": null,
      "dataType": null,
      "domain": null,
      "origin": null
    },
    "EGORRESU": {
      "definition": "Original units",
      "comment": null,
      "section": "ECG Variables",
      "mandatory": null,
      "codeList": null,
      "dataType": null,
      "domain": null,
      "origin": null
    },
    "EGSTRESC": {
      "definition": "Character result in standard format",
      "comment": null,
      "section": "ECG Variables",
      "mandatory": null,
      "codeList": null,
      "dataType": null,
      "domain": null,
      "origin": null
    },
    "EGSTRESN": {
      "definition": "Numeric result in standard units",
      "comment": null,
      "section": "ECG Variables",
      "mandatory": null,
      "codeList": null,
      "dataType": null,
      "domain": null,
      "origin": null
    },
    "EGSTRESU": {
      "definition": "Standard units",
      "comment": null,
      "section": "ECG Variables",
      "mandatory": null,
      "codeList": null,
      "dataType": null,
      "domain": null,
      "origin": null
    },
    "EGSTAT": {
      "definition": "Completion status",
      "comment": null,
      "section": "ECG Variables",
      "mandatory": null,
      "codeList": null,
      "dataType": null,
      "domain": null,
      "origin": null
    },
    "EGREASND": {
      "definition": "Reason not done",
      "comment": null,
      "section": "ECG Variables",
      "mandatory": null,
      "codeList": null,
      "dataType": null,
      "domain": null,
      "origin": null
    },
    "EGMETHOD": {
      "definition": "Method of ECG",
      "comment": null,
      "section": "ECG Variables",
      "mandatory": null,
      "codeList": null,
      "dataType": null,
      "domain": null,
      "origin": null
    },
    "EGBLFL": {
      "definition": "Baseline flag",
      "comment": null,
      "section": "ECG Variables",
      "mandatory": null,
      "codeList": null,
      "dataType": null,
      "domain": null,
      "origin": null
    },
    "EGEVAL": {
      "definition": "Evaluator",
      "comment": null,
      "section": "ECG Variables",
      "mandatory": null,
      "codeList": null,
      "dataType": null,
      "domain": null,
      "origin": null
    },
    "EGDTC": {
      "definition": "Date/time of ECG",
      "comment": null,
      "section": "ECG Variables",
      "mandatory": null,
      "codeList": null,
      "dataType": null,
      "domain": null,
      "origin": null
    },
    "EGDY": {
      "definition": "Study day of ECG",
      "comment": null,
      "section": "ECG Variables",
      "mandatory": null,
      "codeList": null,
      "dataType": null,
      "domain": null,
      "origin": null
    },
    "EXSEQ": {
      "definition": "Sequence number for exposure",
      "comment": null,
      "section": "Exposure (EX) Variables",
      "mandatory": null,
      "codeList": null,
      "dataType": null,
      "domain": null,
      "origin": null
    },
    "EXTRT": {
      "definition": "Name of treatment",
      "comment": null,
      "section": "Exposure (EX) Variables",
      "mandatory": null,
      "codeList": null,
      "dataType": null,
      "domain": null,
      "origin": null
    },
    "EXDOSE": {
      "definition": "Dose per administration",
      "comment": null,
      "section": "Exposure (EX) Variables",
      "mandatory": null,
      "codeList": null,
      "dataType": null,
      "domain": null,
      "origin": null
    },
    "EXDOSU": {
      "definition": "Dose units",
      "comment": null,
      "section": "Exposure (EX) Variables",
      "mandatory": null,
      "codeList": null,
      "dataType": null,
      "domain": null,
      "origin": null
    },
    "EXDOSFRM": {
      "definition": "Dose form",
      "comment": null,
      "section": "Exposure (EX) Variables",
      "mandatory": null,
      "codeList": null,
      "dataType": null,
      "domain": null,
      "origin": null
    },
    "EXROUTE": {
      "definition": "Route of administration",
      "comment": null,
      "section": "Exposure (EX) Variables",
      "mandatory": null,
      "codeList": null,
      "dataType": null,
      "domain": null,
      "origin": null
    },
    "EXLOC": {
      "definition": "Location of dose administration",
      "comment": null,
      "section": "Exposure (EX) Variables",
      "mandatory": null,
      "codeList": null,
      "dataType": null,
      "domain": null,
      "origin": null
    },
    "EXLAT": {
      "definition": "Laterality",
      "comment": null,
      "section": "Exposure (EX) Variables",
      "mandatory": null,
      "codeList": null,
      "dataType": null,
      "domain": null,
      "origin": null
    },
    "EXDIR": {
      "definition": "Direction",
      "comment": null,
      "section": "Exposure (EX) Variables",
      "mandatory": null,
      "codeList": null,
      "dataType": null,
      "domain": null,
      "origin": null
    },
    "EXSTDTC": {
      "definition": "Start date/time of treatment",
      "comment": null,
      "section": "Exposure (EX) Variables",
      "mandatory": null,
      "codeList": null,
      "dataType": null,
      "domain": null,
      "origin": null
    },
    "EXENDTC": {
      "definition": "End date/time of treatment",
      "comment": null,
      "section": "Exposure (EX) Variables",
      "mandatory": null,
      "codeList": null,
      "dataType": null,
      "domain": null,
      "origin": null
    },
    "EXSTDY": {
      "definition": "Study day of start of treatment",
      "comment": null,
      "section": "Exposure (EX) Variables",
      "mandatory": null,
      "codeList": null,
      "dataType": null,
      "domain": null,
      "origin": null
    },
    "EXENDY": {
      "definition": "Study day of end of treatment",
      "comment": null,
      "section": "Exposure (EX) Variables",
      "mandatory": null,
      "codeList": null,
      "dataType": null,
      "domain": null,
      "origin": null
    },
    "EXLNKID": {
      "definition": "Link identifier",
      "comment": null,
      "section": "Exposure (EX) Variables",
      "mandatory": null,
      "codeList": null,
      "dataType": null,
      "domain": null,
      "origin": null
    },
    "EXLNKGRP": {
      "definition": "Link group",
      "comment": null,
      "section": "Exposure (EX) Variables",
      "mandatory": null,
      "codeList": null,
      "dataType": null,
      "domain": null,
      "origin": null
    },
    "EXCAT": {
      "definition": "Category",
      "comment": null,
      "section": "Exposure (EX) Variables",
      "mandatory": null,
      "codeList": null,
      "dataType": null,
      "domain": null,
      "origin": null
    },
    "EXSCAT": {
      "definition": "Subcategory",
      "comment": null,
      "section": "Exposure (EX) Variables",
      "mandatory": null,
      "codeList": null,
      "dataType": null,
      "domain": null,
      "origin": null
    },
    "EXADJ": {
      "definition": "Adjustment",
      "comment": null,
      "section": "Exposure (EX) Variables",
      "mandatory": null,
      "codeList": null,
      "dataType": null,
      "domain": null,
      "origin": null
    },
    "EXTPTREF": {
      "definition": "Time point reference",
      "comment": null,
      "section": "Exposure (EX) Variables",
      "mandatory": null,
      "codeList": null,
      "dataType": null,
      "domain": null,
      "origin": null
    },
    "FASEQ": {
      "definition": "Sequence number for findings about",
      "comment": null,
      "section": "Findings About Variables",
      "mandatory": null,
      "codeList": null,
      "dataType": null,
      "domain": null,
      "origin": null
    },
    "FAGRPID": {
      "definition": "Group identifier",
      "comment": null,
      "section": "Findings About Variables",
      "mandatory": null,
      "codeList": null,
      "dataType": null,
      "domain": null,
      "origin": null
    },
    "FACAT": {
      "definition": "Category for findings about",
      "comment": null,
      "section": "Findings About Variables",
      "mandatory": null,
      "codeList": null,
      "dataType": null,
      "domain": null,
      "origin": null
    },
    "FAORRES": {
      "definition": "Result or finding in original units",
      "comment": null,
      "section": "Findings About Variables",
      "mandatory": null,
      "codeList": null,
      "dataType": null,
      "domain": null,
      "origin": null
    },
    "FASTAT": {
      "definition": "Completion status",
      "comment": null,
      "section": "Findings About Variables",
      "mandatory": null,
      "codeList": null,
      "dataType": null,
      "domain": null,
      "origin": null
    },
    "FAREASND": {
      "definition": "Reason not done",
      "comment": null,
      "section": "Findings About Variables",
      "mandatory": null,
      "codeList": null,
      "dataType": null,
      "domain": null,
      "origin": null
    },
    "FAEVAL": {
      "definition": "Evaluator",
      "comment": null,
      "section": "Findings About Variables",
      "mandatory": null,
      "codeList": null,
      "dataType": null,
      "domain": null,
      "origin": null
    },
    "FADY": {
      "definition": "Study day of collection",
      "comment": null,
      "section": "Findings About Variables",
      "mandatory": null,
      "codeList": null,
      "dataType": null,
      "domain": null,
      "origin": null
    },
    "FATPTNUM": {
      "definition": "Numeric identifier of when an observation is planned to occur.",
      "comment": null,
      "section": "Findings About Variables",
      "mandatory": null,
      "codeList": null,
      "dataType": null,
      "domain": null,
      "origin": null
    },
    "FARFTDTC": {
      "definition": "Reference date/time",
      "comment": null,
      "section": "Findings About Variables",
      "mandatory": null,
      "codeList": null,
      "dataType": null,
      "domain": null,
      "origin": null
    },
    "FAEVLINT": {
      "definition": "Evaluation interval",
      "comment": null,
      "section": "Findings About Variables",
      "mandatory": null,
      "codeList": null,
      "dataType": null,
      "domain": null,
      "origin": null
    },
    "FAEVINTX": {
      "definition": "Evaluation interval text",
      "comment": null,
      "section": "Findings About Variables",
      "mandatory": null,
      "codeList": null,
      "dataType": null,
      "domain": null,
      "origin": null
    },
    "FAREFID": {
      "definition": "Reference identifier",
      "comment": null,
      "section": "Findings About Variables",
      "mandatory": null,
      "codeList": null,
      "dataType": null,
      "domain": null,
      "origin": null
    },
    "FAORRESU": {
      "definition": "Original units",
      "comment": null,
      "section": "Findings About Variables",
      "mandatory": null,
      "codeList": null,
      "dataType": null,
      "domain": null,
      "origin": null
    },
    "FASTRESN": {
      "definition": "Numeric result in standard units",
      "comment": null,
      "section": "Findings About Variables",
      "mandatory": null,
      "codeList": null,
      "dataType": null,
      "domain": null,
      "origin": null
    },
    "FASTRESU": {
      "definition": "Standard units",
      "comment": null,
      "section": "Findings About Variables",
      "mandatory": null,
      "codeList": null,
      "dataType": null,
      "domain": null,
      "origin": null
    },
    "FALOC": {
      "definition": "Location",
      "comment": null,
      "section": "Findings About Variables",
      "mandatory": null,
      "codeList": null,
      "dataType": null,
      "domain": null,
      "origin": null
    },
    "FALAT": {
      "definition": "Laterality",
      "comment": null,
      "section": "Findings About Variables",
      "mandatory": null,
      "codeList": null,
      "dataType": null,
      "domain": null,
      "origin": null
    },
    "FADRVFL": {
      "definition": "Derived flag",
      "comment": null,
      "section": "Findings About Variables",
      "mandatory": null,
      "codeList": null,
      "dataType": null,
      "domain": null,
      "origin": null
    },
    "FAENRTPT": {
      "definition": "End reference time point",
      "comment": null,
      "section": "Findings About Variables",
      "mandatory": null,
      "codeList": null,
      "dataType": null,
      "domain": null,
      "origin": null
    },
    "FAENTPT": {
      "definition": "End time point",
      "comment": null,
      "section": "Findings About Variables",
      "mandatory": null,
      "codeList": null,
      "dataType": null,
      "domain": null,
      "origin": null
    },
    "FASTINT": {
      "definition": "Evaluation interval start ",
      "comment": "uncertain",
      "section": "Findings About Variables",
      "mandatory": null,
      "codeList": null,
      "dataType": null,
      "domain": null,
      "origin": null
    },
    "FAENINT": {
      "definition": "Evaluation interval end",
      "comment": "uncertain",
      "section": "Findings About Variables",
      "mandatory": null,
      "codeList": null,
      "dataType": null,
      "domain": null,
      "origin": null
    },
    "ISSEQ": {
      "definition": "Sequence number for immunogenicity",
      "comment": null,
      "section": "Immunogenicity Variables",
      "mandatory": null,
      "codeList": null,
      "dataType": null,
      "domain": null,
      "origin": null
    },
    "ISREFID": {
      "definition": "Reference identifier",
      "comment": null,
      "section": "Immunogenicity Variables",
      "mandatory": null,
      "codeList": null,
      "dataType": null,
      "domain": null,
      "origin": null
    },
    "ISTESTCD": {
      "definition": "Immunogenicity test code",
      "comment": null,
      "section": "Immunogenicity Variables",
      "mandatory": null,
      "codeList": null,
      "dataType": null,
      "domain": null,
      "origin": null
    },
    "ISTEST": {
      "definition": "Immunogenicity test name",
      "comment": null,
      "section": "Immunogenicity Variables",
      "mandatory": null,
      "codeList": null,
      "dataType": null,
      "domain": null,
      "origin": null
    },
    "ISCAT": {
      "definition": "Category for immunogenicity",
      "comment": null,
      "section": "Immunogenicity Variables",
      "mandatory": null,
      "codeList": null,
      "dataType": null,
      "domain": null,
      "origin": null
    },
    "ISORRES": {
      "definition": "Result or finding in original units",
      "comment": null,
      "section": "Immunogenicity Variables",
      "mandatory": null,
      "codeList": null,
      "dataType": null,
      "domain": null,
      "origin": null
    },
    "ISORRESU": {
      "definition": "Original units",
      "comment": null,
      "section": "Immunogenicity Variables",
      "mandatory": null,
      "codeList": null,
      "dataType": null,
      "domain": null,
      "origin": null
    },
    "ISSTRESC": {
      "definition": "Character result in standard format",
      "comment": null,
      "section": "Immunogenicity Variables",
      "mandatory": null,
      "codeList": null,
      "dataType": null,
      "domain": null,
      "origin": null
    },
    "ISSTRESN": {
      "definition": "Numeric result in standard units",
      "comment": null,
      "section": "Immunogenicity Variables",
      "mandatory": null,
      "codeList": null,
      "dataType": null,
      "domain": null,
      "origin": null
    },
    "ISSTRESU": {
      "definition": "Standard units",
      "comment": null,
      "section": "Immunogenicity Variables",
      "mandatory": null,
      "codeList": null,
      "dataType": null,
      "domain": null,
      "origin": null
    },
    "ISSTAT": {
      "definition": "Completion status",
      "comment": null,
      "section": "Immunogenicity Variables",
      "mandatory": null,
      "codeList": null,
      "dataType": null,
      "domain": null,
      "origin": null
    },
    "ISREASND": {
      "definition": "Reason not done",
      "comment": null,
      "section": "Immunogenicity Variables",
      "mandatory": null,
      "codeList": null,
      "dataType": null,
      "domain": null,
      "origin": null
    },
    "ISSPEC": {
      "definition": "Specimen type",
      "comment": null,
      "section": "Immunogenicity Variables",
      "mandatory": null,
      "codeList": null,
      "dataType": null,
      "domain": null,
      "origin": null
    },
    "ISBLFL": {
      "definition": "Baseline flag",
      "comment": null,
      "section": "Immunogenicity Variables",
      "mandatory": null,
      "codeList": null,
      "dataType": null,
      "domain": null,
      "origin": null
    },
    "ISDTC": {
      "definition": "Date/time of specimen collection",
      "comment": null,
      "section": "Immunogenicity Variables",
      "mandatory": null,
      "codeList": null,
      "dataType": null,
      "domain": null,
      "origin": null
    },
    "ISDY": {
      "definition": "Study day of specimen collection",
      "comment": null,
      "section": "Immunogenicity Variables",
      "mandatory": null,
      "codeList": null,
      "dataType": null,
      "domain": null,
      "origin": null
    },
    "ISGRPID": {
      "definition": "Group identifier",
      "comment": null,
      "section": "Immunogenicity Variables",
      "mandatory": null,
      "codeList": null,
      "dataType": null,
      "domain": null,
      "origin": null
    },
    "ISMETHOD": {
      "definition": "Method",
      "comment": null,
      "section": "Immunogenicity Variables",
      "mandatory": null,
      "codeList": null,
      "dataType": null,
      "domain": null,
      "origin": null
    },
    "MBSEQ": {
      "definition": "Sequence number for microbiology",
      "comment": null,
      "section": "Microbiology Variables",
      "mandatory": null,
      "codeList": null,
      "dataType": null,
      "domain": null,
      "origin": null
    },
    "MBGRPID": {
      "definition": "Group identifier",
      "comment": null,
      "section": "Microbiology Variables",
      "mandatory": null,
      "codeList": null,
      "dataType": null,
      "domain": null,
      "origin": null
    },
    "MBTESTCD": {
      "definition": "Microbiology test code",
      "comment": null,
      "section": "Microbiology Variables",
      "mandatory": null,
      "codeList": null,
      "dataType": null,
      "domain": null,
      "origin": null
    },
    "MBTEST": {
      "definition": "Microbiology test name",
      "comment": null,
      "section": "Microbiology Variables",
      "mandatory": null,
      "codeList": null,
      "dataType": null,
      "domain": null,
      "origin": null
    },
    "MBTSTDTL": {
      "definition": "Test detail",
      "comment": null,
      "section": "Microbiology Variables",
      "mandatory": null,
      "codeList": null,
      "dataType": null,
      "domain": null,
      "origin": null
    },
    "MBCAT": {
      "definition": "Category for microbiology",
      "comment": null,
      "section": "Microbiology Variables",
      "mandatory": null,
      "codeList": null,
      "dataType": null,
      "domain": null,
      "origin": null
    },
    "MBORRES": {
      "definition": "Result or finding in original units",
      "comment": null,
      "section": "Microbiology Variables",
      "mandatory": null,
      "codeList": null,
      "dataType": null,
      "domain": null,
      "origin": null
    },
    "MBORNRHI": {
      "definition": "Reference range upper limit in original units",
      "comment": null,
      "section": "Microbiology Variables",
      "mandatory": null,
      "codeList": null,
      "dataType": null,
      "domain": null,
      "origin": null
    },
    "MBSTRESC": {
      "definition": "Character result in standard format",
      "comment": null,
      "section": "Microbiology Variables",
      "mandatory": null,
      "codeList": null,
      "dataType": null,
      "domain": null,
      "origin": null
    },
    "MBSTNRHI": {
      "definition": "Reference range upper limit in standard units",
      "comment": null,
      "section": "Microbiology Variables",
      "mandatory": null,
      "codeList": null,
      "dataType": null,
      "domain": null,
      "origin": null
    },
    "MBSTNRC": {
      "definition": "Reference range for character results",
      "comment": null,
      "section": "Microbiology Variables",
      "mandatory": null,
      "codeList": null,
      "dataType": null,
      "domain": null,
      "origin": null
    },
    "MBNRIND": {
      "definition": "Reference range indicator",
      "comment": null,
      "section": "Microbiology Variables",
      "mandatory": null,
      "codeList": null,
      "dataType": null,
      "domain": null,
      "origin": null
    },
    "MBRESCAT": {
      "definition": "Result category",
      "comment": null,
      "section": "Microbiology Variables",
      "mandatory": null,
      "codeList": null,
      "dataType": null,
      "domain": null,
      "origin": null
    },
    "MBSTAT": {
      "definition": "Completion status",
      "comment": null,
      "section": "Microbiology Variables",
      "mandatory": null,
      "codeList": null,
      "dataType": null,
      "domain": null,
      "origin": null
    },
    "MBREASND": {
      "definition": "Reason not done",
      "comment": null,
      "section": "Microbiology Variables",
      "mandatory": null,
      "codeList": null,
      "dataType": null,
      "domain": null,
      "origin": null
    },
    "MBNAM": {
      "definition": "Laboratory/vendor name",
      "comment": null,
      "section": "Microbiology Variables",
      "mandatory": null,
      "codeList": null,
      "dataType": null,
      "domain": null,
      "origin": null
    },
    "MBSPEC": {
      "definition": "Specimen type",
      "comment": null,
      "section": "Microbiology Variables",
      "mandatory": null,
      "codeList": null,
      "dataType": null,
      "domain": null,
      "origin": null
    },
    "MBLOC": {
      "definition": "Specimen location",
      "comment": null,
      "section": "Microbiology Variables",
      "mandatory": null,
      "codeList": null,
      "dataType": null,
      "domain": null,
      "origin": null
    },
    "MBMETHOD": {
      "definition": "Method",
      "comment": null,
      "section": "Microbiology Variables",
      "mandatory": null,
      "codeList": null,
      "dataType": null,
      "domain": null,
      "origin": null
    },
    "MBBLFL": {
      "definition": "Baseline flag",
      "comment": null,
      "section": "Microbiology Variables",
      "mandatory": null,
      "codeList": null,
      "dataType": null,
      "domain": null,
      "origin": null
    },
    "MBDTC": {
      "definition": "Date/time of specimen collection",
      "comment": null,
      "section": "Microbiology Variables",
      "mandatory": null,
      "codeList": null,
      "dataType": null,
      "domain": null,
      "origin": null
    },
    "MBDY": {
      "definition": "Study day of specimen collection",
      "comment": null,
      "section": "Microbiology Variables",
      "mandatory": null,
      "codeList": null,
      "dataType": null,
      "domain": null,
      "origin": null
    },
    "MBREFID": {
      "definition": "Reference identifier",
      "comment": null,
      "section": "Microbiology Variables",
      "mandatory": null,
      "codeList": null,
      "dataType": null,
      "domain": null,
      "origin": null
    },
    "MBSPID": {
      "definition": "Sponsor-defined identifier",
      "comment": null,
      "section": "Microbiology Variables",
      "mandatory": null,
      "codeList": null,
      "dataType": null,
      "domain": null,
      "origin": null
    },
    "MBSCAT": {
      "definition": "Subcategory",
      "comment": null,
      "section": "Microbiology Variables",
      "mandatory": null,
      "codeList": null,
      "dataType": null,
      "domain": null,
      "origin": null
    },
    "MBLOINC": {
      "definition": "LOINC code",
      "comment": null,
      "section": "Microbiology Variables",
      "mandatory": null,
      "codeList": null,
      "dataType": null,
      "domain": null,
      "origin": null
    },
    "MHSEQ": {
      "definition": "Sequence number for medical history",
      "comment": null,
      "section": "Medical History Variables",
      "mandatory": null,
      "codeList": null,
      "dataType": null,
      "domain": null,
      "origin": null
    },
    "MHTERM": {
      "definition": "Reported term for medical history",
      "comment": null,
      "section": "Medical History Variables",
      "mandatory": null,
      "codeList": null,
      "dataType": null,
      "domain": null,
      "origin": null
    },
    "MHMODIFY": {
      "definition": "Modified medical history term",
      "comment": null,
      "section": "Medical History Variables",
      "mandatory": null,
      "codeList": null,
      "dataType": null,
      "domain": null,
      "origin": null
    },
    "MHLLT": {
      "definition": "Lowest level term",
      "comment": null,
      "section": "Medical History Variables",
      "mandatory": null,
      "codeList": null,
      "dataType": null,
      "domain": null,
      "origin": null
    },
    "MHLLTCD": {
      "definition": "Lowest level term code",
      "comment": null,
      "section": "Medical History Variables",
      "mandatory": null,
      "codeList": null,
      "dataType": null,
      "domain": null,
      "origin": null
    },
    "MHDECOD": {
      "definition": "Dictionary-derived term",
      "comment": null,
      "section": "Medical History Variables",
      "mandatory": null,
      "codeList": null,
      "dataType": null,
      "domain": null,
      "origin": null
    },
    "MHPTCD": {
      "definition": "Preferred term code",
      "comment": null,
      "section": "Medical History Variables",
      "mandatory": null,
      "codeList": null,
      "dataType": null,
      "domain": null,
      "origin": null
    },
    "MHHLT": {
      "definition": "High level term",
      "comment": null,
      "section": "Medical History Variables",
      "mandatory": null,
      "codeList": null,
      "dataType": null,
      "domain": null,
      "origin": null
    },
    "MHHLTCD": {
      "definition": "High level term code",
      "comment": null,
      "section": "Medical History Variables",
      "mandatory": null,
      "codeList": null,
      "dataType": null,
      "domain": null,
      "origin": null
    },
    "MHHLGT": {
      "definition": "High level group term",
      "comment": null,
      "section": "Medical History Variables",
      "mandatory": null,
      "codeList": null,
      "dataType": null,
      "domain": null,
      "origin": null
    },
    "MHHLGTCD": {
      "definition": "High level group term code",
      "comment": null,
      "section": "Medical History Variables",
      "mandatory": null,
      "codeList": null,
      "dataType": null,
      "domain": null,
      "origin": null
    },
    "MHBODSYS": {
      "definition": "Body system or organ class",
      "comment": null,
      "section": "Medical History Variables",
      "mandatory": null,
      "codeList": null,
      "dataType": null,
      "domain": null,
      "origin": null
    },
    "MHBDSYCD": {
      "definition": "Body system or organ class code",
      "comment": null,
      "section": "Medical History Variables",
      "mandatory": null,
      "codeList": null,
      "dataType": null,
      "domain": null,
      "origin": null
    },
    "MHSOC": {
      "definition": "System organ class",
      "comment": null,
      "section": "Medical History Variables",
      "mandatory": null,
      "codeList": null,
      "dataType": null,
      "domain": null,
      "origin": null
    },
    "MHSOCCD": {
      "definition": "System organ class code",
      "comment": null,
      "section": "Medical History Variables",
      "mandatory": null,
      "codeList": null,
      "dataType": null,
      "domain": null,
      "origin": null
    },
    "MHSTDTC": {
      "definition": "Start date/time of medical history event",
      "comment": null,
      "section": "Medical History Variables",
      "mandatory": null,
      "codeList": null,
      "dataType": null,
      "domain": null,
      "origin": null
    },
    "MHENDTC": {
      "definition": "End date/time of medical history event",
      "comment": null,
      "section": "Medical History Variables",
      "mandatory": null,
      "codeList": null,
      "dataType": null,
      "domain": null,
      "origin": null
    },
    "MHENRTPT": {
      "definition": "End reference time point",
      "comment": null,
      "section": "Medical History Variables",
      "mandatory": null,
      "codeList": null,
      "dataType": null,
      "domain": null,
      "origin": null
    },
    "MHENTPT": {
      "definition": "End time point",
      "comment": null,
      "section": "Medical History Variables",
      "mandatory": null,
      "codeList": null,
      "dataType": null,
      "domain": null,
      "origin": null
    },
    "MHSPID": {
      "definition": "Sponsor-defined identifier",
      "comment": null,
      "section": "Medical History Variables",
      "mandatory": null,
      "codeList": null,
      "dataType": null,
      "domain": null,
      "origin": null
    },
    "MHCAT": {
      "definition": "Category",
      "comment": null,
      "section": "Medical History Variables",
      "mandatory": null,
      "codeList": null,
      "dataType": null,
      "domain": null,
      "origin": null
    },
    "MHDTC": {
      "definition": "Date/time of history collection",
      "comment": null,
      "section": "Medical History Variables",
      "mandatory": null,
      "codeList": null,
      "dataType": null,
      "domain": null,
      "origin": null
    },
    "MHDY": {
      "definition": "Study day of history collection",
      "comment": null,
      "section": "Medical History Variables",
      "mandatory": null,
      "codeList": null,
      "dataType": null,
      "domain": null,
      "origin": null
    },
    "MHSTDY": {
      "definition": "Study day of start of medical history",
      "comment": null,
      "section": "Medical History Variables",
      "mandatory": null,
      "codeList": null,
      "dataType": null,
      "domain": null,
      "origin": null
    },
    "MHENDY": {
      "definition": "Study day of end of medical history",
      "comment": null,
      "section": "Medical History Variables",
      "mandatory": null,
      "codeList": null,
      "dataType": null,
      "domain": null,
      "origin": null
    },
    "PESEQ": {
      "definition": "Sequence number for physical exam",
      "comment": null,
      "section": "Physical Examination Variables",
      "mandatory": null,
      "codeList": null,
      "dataType": null,
      "domain": null,
      "origin": null
    },
    "PESPID": {
      "definition": "Sponsor-defined identifier",
      "comment": null,
      "section": "Physical Examination Variables",
      "mandatory": null,
      "codeList": null,
      "dataType": null,
      "domain": null,
      "origin": null
    },
    "PETESTCD": {
      "definition": "Physical exam test code",
      "comment": null,
      "section": "Physical Examination Variables",
      "mandatory": null,
      "codeList": null,
      "dataType": null,
      "domain": null,
      "origin": null
    },
    "PETEST": {
      "definition": "Physical exam test name",
      "comment": null,
      "section": "Physical Examination Variables",
      "mandatory": null,
      "codeList": null,
      "dataType": null,
      "domain": null,
      "origin": null
    },
    "PECAT": {
      "definition": "Category for physical exam",
      "comment": null,
      "section": "Physical Examination Variables",
      "mandatory": null,
      "codeList": null,
      "dataType": null,
      "domain": null,
      "origin": null
    },
    "PEORRES": {
      "definition": "Result or finding in original units",
      "comment": null,
      "section": "Physical Examination Variables",
      "mandatory": null,
      "codeList": null,
      "dataType": null,
      "domain": null,
      "origin": null
    },
    "PESTRESC": {
      "definition": "Character result in standard format",
      "comment": null,
      "section": "Physical Examination Variables",
      "mandatory": null,
      "codeList": null,
      "dataType": null,
      "domain": null,
      "origin": null
    },
    "PESTAT": {
      "definition": "Completion status",
      "comment": null,
      "section": "Physical Examination Variables",
      "mandatory": null,
      "codeList": null,
      "dataType": null,
      "domain": null,
      "origin": null
    },
    "PEREASND": {
      "definition": "Reason not done",
      "comment": null,
      "section": "Physical Examination Variables",
      "mandatory": null,
      "codeList": null,
      "dataType": null,
      "domain": null,
      "origin": null
    },
    "PEDTC": {
      "definition": "Date/time of examination",
      "comment": null,
      "section": "Physical Examination Variables",
      "mandatory": null,
      "codeList": null,
      "dataType": null,
      "domain": null,
      "origin": null
    },
    "PEDY": {
      "definition": "Study day of examination",
      "comment": null,
      "section": "Physical Examination Variables",
      "mandatory": null,
      "codeList": null,
      "dataType": null,
      "domain": null,
      "origin": null
    },
    "RELTYPE": {
      "definition": "Relationship type",
      "comment": null,
      "section": "Relationship Variables",
      "mandatory": null,
      "codeList": null,
      "dataType": null,
      "domain": null,
      "origin": null
    },
    "RELID": {
      "definition": "Relationship identifier",
      "comment": null,
      "section": "Relationship Variables",
      "mandatory": null,
      "codeList": null,
      "dataType": null,
      "domain": null,
      "origin": null
    },
    "RPSEQ": {
      "definition": "Sequence number for reproductive system",
      "comment": null,
      "section": "Reproductive System Variables",
      "mandatory": null,
      "codeList": null,
      "dataType": null,
      "domain": null,
      "origin": null
    },
    "RPTESTCD": {
      "definition": "Reproductive system test code",
      "comment": null,
      "section": "Reproductive System Variables",
      "mandatory": null,
      "codeList": null,
      "dataType": null,
      "domain": null,
      "origin": null
    },
    "RPTEST": {
      "definition": "Reproductive system test name",
      "comment": null,
      "section": "Reproductive System Variables",
      "mandatory": null,
      "codeList": null,
      "dataType": null,
      "domain": null,
      "origin": null
    },
    "RPORRES": {
      "definition": "Result or finding in original units",
      "comment": null,
      "section": "Reproductive System Variables",
      "mandatory": null,
      "codeList": null,
      "dataType": null,
      "domain": null,
      "origin": null
    },
    "RPORRESU": {
      "definition": "Original units",
      "comment": null,
      "section": "Reproductive System Variables",
      "mandatory": null,
      "codeList": null,
      "dataType": null,
      "domain": null,
      "origin": null
    },
    "RPSTRESC": {
      "definition": "Character result in standard format",
      "comment": null,
      "section": "Reproductive System Variables",
      "mandatory": null,
      "codeList": null,
      "dataType": null,
      "domain": null,
      "origin": null
    },
    "RPSTRESN": {
      "definition": "Numeric result in standard units",
      "comment": null,
      "section": "Reproductive System Variables",
      "mandatory": null,
      "codeList": null,
      "dataType": null,
      "domain": null,
      "origin": null
    },
    "RPSTRESU": {
      "definition": "Standard units",
      "comment": null,
      "section": "Reproductive System Variables",
      "mandatory": null,
      "codeList": null,
      "dataType": null,
      "domain": null,
      "origin": null
    },
    "RPDTC": {
      "definition": "Date/time of assessment",
      "comment": null,
      "section": "Reproductive System Variables",
      "mandatory": null,
      "codeList": null,
      "dataType": null,
      "domain": null,
      "origin": null
    },
    "RPDY": {
      "definition": "Study day of assessment",
      "comment": null,
      "section": "Reproductive System Variables",
      "mandatory": null,
      "codeList": null,
      "dataType": null,
      "domain": null,
      "origin": null
    },
    "SESEQ": {
      "definition": "Sequence number for study element",
      "comment": null,
      "section": "Study Elements Variables",
      "mandatory": null,
      "codeList": null,
      "dataType": null,
      "domain": null,
      "origin": null
    },
    "ETCD": {
      "definition": "Element code",
      "comment": null,
      "section": "Study Elements Variables",
      "mandatory": null,
      "codeList": null,
      "dataType": null,
      "domain": null,
      "origin": null
    },
    "ELEMENT": {
      "definition": "Description of element",
      "comment": null,
      "section": "Study Elements Variables",
      "mandatory": null,
      "codeList": null,
      "dataType": null,
      "domain": null,
      "origin": null
    },
    "TAETORD": {
      "definition": "Planned order of element within trial arm",
      "comment": null,
      "section": "Study Elements Variables",
      "mandatory": null,
      "codeList": null,
      "dataType": null,
      "domain": null,
      "origin": null
    },
    "SESTDTC": {
      "definition": "Start date/time of element",
      "comment": null,
      "section": "Study Elements Variables",
      "mandatory": null,
      "codeList": null,
      "dataType": null,
      "domain": null,
      "origin": null
    },
    "SEENDTC": {
      "definition": "End date/time of element",
      "comment": null,
      "section": "Study Elements Variables",
      "mandatory": null,
      "codeList": null,
      "dataType": null,
      "domain": null,
      "origin": null
    },
    "SESTDY": {
      "definition": "Study day of start of element",
      "comment": null,
      "section": "Study Elements Variables",
      "mandatory": null,
      "codeList": null,
      "dataType": null,
      "domain": null,
      "origin": null
    },
    "SEENDY": {
      "definition": "Study day of end of element",
      "comment": null,
      "section": "Study Elements Variables",
