filename,title,date,google_drive_link,folder,file_type,page_count,module,document_type,people_mentioned,tags,has_exemption,has_exclusion,password_protected,processed
FDA-CBER-2022-908-0015485 to -0015486_125752_S40_M5__table-14-3-1-37-4.docx,Clinical Study Report,2022,https://docs.google.com/document/d/1dBqV6ZhSHcb5-YxGwq2y3bGB8S7EGDZr/edit?usp=drivesdk&ouid=106698971417007077985&rtpof=true&sd=true,md-production-120423,DOCX,1,M5,Research Report,,"Research Report, Biostatistics, Efficacy Data, Clinical Study, Immunogenicity, Regulatory Compliance, Pharmaceutical, Safety Data, Medical Research, Pharmacokinetics, CBER, FDA, Regulatory Submission, Adverse Events, Pharmacology, Table 14.3.1.37.4, Toxicology",False,False,False,False
FDA-CBER-2022-908-0015483 to -0015484_125752_S40_M5__table-14-3-1-37-3-2.docx,Clinical Study Report,2022,https://docs.google.com/document/d/1VlIvcA7omLRWxukNOLrij7YA-0XuItHH/edit?usp=drivesdk&ouid=106698971417007077985&rtpof=true&sd=true,md-production-120423,DOCX,1,M5,Research Report,,"Research Report, Biostatistics, Efficacy Data, Clinical Study, Immunogenicity, Pharmacodynamics, Regulatory Compliance, Pharmaceutical, Medical Research, Table 14.3.1-37.3.2, Pharmacokinetics, CBER, FDA, Regulatory Submission, Adverse Events, Dose Response, Safety Data",False,False,False,False
FDA-CBER-2022-908-0015481 to -0015482_ 125752_S40_M5_table-14-3-1-37-3-1.docx,Clinical Study Report,2022,https://docs.google.com/document/d/1YoKMVd-6jUfoQvLSnsIi-Hwe-YzB0hvS/edit?usp=drivesdk&ouid=106698971417007077985&rtpof=true&sd=true,md-production-120423,DOCX,1,M5,Research Report,,"Research Report, Biostatistics, Efficacy Data, Clinical Study, Data Analysis, Vaccine Development, Immunology, Regulatory Compliance, Pharmaceutical, Medical Research, CBER, FDA, Regulatory Submission, Table 14.3.1.37.3.1, Adverse Events, Pharmacology, Safety Data",False,False,False,False
FDA-CBER-2022-908-0015487 to -0015492_125752_S44_M1_rsp-fda-on-info-req43-07jan2022.docx,Response to FDA on Information Request #43,"January 07, 2022",https://docs.google.com/document/d/1W-09YXTtYE0Um9H4OKmI16e87N6IpukA/edit?usp=drivesdk&ouid=106698971417007077985&rtpof=true&sd=true,md-production-120423,DOCX,1,M1,Safety data report,Sponsor,"mRNA-1273, Vaccine safety, COVID-19 vaccine, Adverse event reporting, Vaccine efficacy, SPIKEVAX, CBER, Adverse events, FDA, Clinical trial, Herpes zoster, Regulatory submission, Pharmacovigilance, Safety data, Vaccine development, Study P301, Information request",False,False,False,False
FDA-CBER-2022-908-0015480_125752_S40_M1_ir-37-item4-missing-aesofl.xlsx,Adverse Event Summary of Findings (AESOF) for mRNA-1273 Vaccine,2020-07-29 to 2020-11-30,https://docs.google.com/spreadsheets/d/1ysSvNiXRA14bbK1L-WsE_IGRf6gG26fy/edit?usp=drivesdk&ouid=106698971417007077985&rtpof=true&sd=true,md-production-120423,XLSX,20,M1,Clinical Trial Data,,"swelling, supraclavicular, inguinal, lymphadenopathy, neck, axillary, AESTDTC, AESOFL, AESTDY, adverse events, FDA, USUBJID, clinical trial, AETERM, AEDECOD, AEENDTC, mRNA-1273 vaccine, CBER, cervical, AEENDY",False,False,False,False
FDA-CBER-2022-908-0015465_125752_S40_M1_deep-vein-thrombosis.xlsx,Deep Vein Thrombosis Study,2022,https://docs.google.com/spreadsheets/d/1f78wmvX04JC0Ib9tPqlEV5X8Mz-tnGln/edit?usp=drivesdk&ouid=106698971417007077985&rtpof=true&sd=true,md-production-120423,XLSX,20,M1,Clinical Study Report,,"mRNA-1273, deep vein thrombosis, hospitalization, musculoskeletal, race, ethnicity, vaccine, treatment, causality, adverse events, CBER, age, FDA, efficacy, clinical study, safety, sex",False,False,False,False
FDA-CBER-2022-908-0015466 to -0015469_125752_S40_M1_dyspnoea-syncope.xlsx,mRNA-1273-P301 Adverse Event Report,2020-08-27,https://docs.google.com/spreadsheets/d/1kXc-FF0im7HK7A-Wx_rKAKuu1kSfyWvD/edit?usp=drivesdk&ouid=106698971417007077985&rtpof=true&sd=true,md-production-120423,XLSX,20,M1,Adverse Event Report,US3082130,"mRNA-1273, Poisoning, Medical Surveillance, Clinical Trial, Adverse Event Reporting, Dyspnea, Respiratory, Injury, Adverse Event, CBER, Vaccine, Cardiovascular, Nervous System, FDA, Pharmacovigilance, Procedural Complication, Syncope",False,False,False,False
FDA-CBER-2022-908-0015475 to -0015479_125752_S40_M1_ir-37-item4-after7.xlsx,Adverse Event Report for mRNA-1273 Vaccine,2020-2021,https://docs.google.com/spreadsheets/d/1hIUk29bYBfziqLCjrFINY-84xMQTF59g/edit?usp=drivesdk&ouid=106698971417007077985&rtpof=true&sd=true,md-production-120423,XLSX,20,M1,Adverse Event Report,,"AETERM, AEDECOD, AESTDY, mRNA-1273 vaccine, AEREFDTC, adverse events, CBER, FDA, USUBJID, clinical trial, AECAT, AESTDTC, EVTSTDY, AEENDY, vaccine safety, AETPTREF, lymphadenopathy",False,False,False,False
FDA-CBER-2022-908-0015460 to -0015464_125752_S39_M1_vertigo.xlsx,Vertigo Study Data,2022,https://docs.google.com/spreadsheets/d/17ee600alxXeTOE6QPnQuRv9B4nWIIFMc/edit?usp=drivesdk&ouid=106698971417007077985&rtpof=true&sd=true,md-production-120423,XLSX,20,M1,Clinical Study Data,US3002249,"mRNA-1273, Data Analysis, Clinical Study, Outcome, Placebo, Causality Assessment, Medical History, Dose Information, CBER, Action Taken, FDA, Serious Adverse Events, Adverse Events, Concomitant Medications, Subject Demographics, Regulatory Submission, Vertigo",False,False,False,False
FDA-CBER-2022-908-0015470 to -0015474_125752_S40_M1_ir-37-item-3-ceday8.xlsx,FDA-CBER-2022-908-0015470 to -0015474_125752_S40_M1_ir-37-item-3-ceday8.xlsx,undated,https://docs.google.com/spreadsheets/d/1NyHZAg12Xl_yKJXp5-BuuEt7W4KqpX4s/edit?usp=drivesdk&ouid=106698971417007077985&rtpof=true&sd=true,md-production-120423,XLSX,20,M1,unknown,,"claude-parse, needs-review",False,False,False,True
FDA-CBER-2022-908-0015456_ 125752_S33_M1_facial-paralysis.xls,Facial Paralysis Data,2022,https://docs.google.com/spreadsheets/d/1BAQw9ZBp-yI8nmI_Hpgl3tXlbINJZGBb/edit?usp=drivesdk&ouid=106698971417007077985&rtpof=true&sd=true,md-production-120423,XLS,0,M1,Clinical Data,,"Data Analysis, Neurological Disorder, Immunization, Facial Paralysis, Epidemiology, Clinical Trial, Public Health, Vaccine Safety, Regulatory Compliance, Adverse Event, CBER, FDA, Biomedical Engineering, Regulatory Submission, Pharmaceutical Research, Spreadsheet, Medical Data",False,False,False,False
FDA-CBER-2022-908-0015457_125752_S33_M1_herpes-zoster-rtq-cber.xlsx,Herpes Zoster Adverse Event Report,2022,https://docs.google.com/spreadsheets/d/1v-F7qzfky7IrjbmIw_PdiX71hCYVt5iK/edit?usp=drivesdk&ouid=106698971417007077985&rtpof=true&sd=true,md-production-120423,XLSX,20,M1,Clinical Trial Data,Avika,"mRNA-1273, Demographic Data, Severity, Infectious Disease, Viral Infection, Clinical Trial, Safety Monitoring, Causality Assessment, Outcome, Adverse Event, Concomitant Medication, Medical History, CBER, Herpes Zoster, FDA, Vaccine, Pharmacovigilance",False,False,False,False
FDA-CBER-2022-908-0015408 to -0015455_125752_S20_M5_mrna-1273-p301_A_D_define2-0-0.xsl,mRNA-1273 P301 Study Definition,2022,https://drive.google.com/file/d/18W0FFSP2-bdyZf4tmre5ihxZSvCYaNf_/view?usp=drivesdk,md-production-120423,XSL,0,M5,Study Protocol,,"mRNA-1273, Infectious Disease, Vaccine Development, Immunology, COVID-19 Vaccine, Regulatory Affairs, Moderna, CBER, FDA, Biomedical Engineering, Regulatory Submission, Pharmaceutical Research, Bioinformatics, Clinical Study Protocol, Clinical Data Management, Phase 3 Clinical Trial, Study Definition",False,False,False,False
FDA-CBER-2022-908-0015311_125752_S20_M1_taug-vax.xlsx,Adverse Event Reporting for Vaccine Trial,2015-01-10,https://docs.google.com/spreadsheets/d/1mC3TzwtUNvkFAsONfQwaZmKjnZ6cQVsQ/edit?usp=drivesdk&ouid=106698971417007077985&rtpof=true&sd=true,md-production-120423,XLSX,20,M1,Clinical Trial Data,ABC-1001,"Administration Site, Clinical Trial, FAOBJ, FACAT, FAORRES, Vomiting, CBER, Vaccine, FDA, USUBJID, FASEQ, Reactogenicity, Adverse Events, Systemic Reactions, FATEST, FASCAT, Erythema",False,False,False,False
FDA-CBER-2022-908-0015312 to -0015359_125752_S20_M5_mrna-1273-p201-add1_A_D_define2-0-0.xsl,mRNA-1273 Vaccine Submission,2022,https://drive.google.com/file/d/1uVW2gL3dbKDyWJ-Wt35bBQs8HMTvjTBV/view?usp=drivesdk,md-production-120423,XSL,0,M5,Regulatory Submission,,"Biotechnology, Pharmaceutical Regulation, Clinical Trial, Vaccine Development, Biomedical, Public Health, Vaccine Safety, Pharmaceutical, Vaccine Efficacy, Moderna, CBER, Healthcare, FDA, Regulatory Submission, mRNA vaccine, Immunology, COVID-19",False,False,False,False
FDA-CBER-2022-908-0015458 to -0015459_125752_S33_M1_hypersensitivity-7days.xlsx,Hypersensitivity Reactions within 7 Days of COVID-19 Vaccination,2022,https://docs.google.com/spreadsheets/d/1OAlXD1NjwIKkb_qfZRojTv1TGNjCatf7/edit?usp=drivesdk&ouid=106698971417007077985&rtpof=true&sd=true,md-production-120423,XLSX,20,M1,Clinical Trial Data,"US308, US3082038, US311, US3112169","Demographic Data, Relationship to Intervention, Clinical Trial, Adverse Event Reporting, Placebo, Non-Urticarial Rash, Skin Rash, Macular Rash, Vaccination Group, Hypersensitivity, Severity Grading, SARS-CoV-2 Status, Vaccine, Adverse Events, Baseline Serology, Outcome, COVID-19",False,False,False,False
FDA-CBER-2022-908-0015360 to -0015407_125752_S20_M5_mrna-1273-p201-d57_A_D_define2-0-0.xsl,mRNA-1273 P201 D57 Analysis Definition,2022,https://drive.google.com/file/d/1hCHW1nl_PI7eVJHfwXM6VdyG95QVig4z/view?usp=drivesdk,md-production-120423,XSL,0,M5,Analysis Definition,,"mRNA-1273, Biostatistics, Data Analysis, Clinical Trial, P201, Pharmaceutical, Analysis, D57, Moderna, Regulatory, CBER, Vaccine, FDA, Definition, Submission, Biopharmaceutical, COVID-19",False,False,False,False
FDA-CBER-2022-908-0015152 to -0015310_125752_S20_M1_l-ae-solicited-term-by-subj-exarm-2021-05-04.xlsx,Adverse Event Solicited Term by Subject Arm - 2021-05-04,2021-05-04,https://docs.google.com/spreadsheets/d/1BlzO4cHw1QM29OtngRSeEnLXuLCXC6-m/edit?usp=drivesdk&ouid=106698971417007077985&rtpof=true&sd=true,md-production-120423,XLSX,20,M1,Clinical trial data,,"injection site pain, musculoskeletal disorders, blood and lymphatic system disorders, injection site erythema, general disorders, vaccine, solicited symptoms, nervous system disorders, adverse events, CBER, fatigue, FDA, clinical trial, headache, myalgia, arthralgia, lymphadenopathy",False,False,False,False
125752_S8_M1_cover-0008.pdf,Moderna BLA 125752 Sequence No. 0008 Submission,"September 29, 2021",https://drive.google.com/file/d/12A71jj9-tpkn3DLUgdFOFzqRFi2lIgYs/view?usp=drivesdk,md-production-120423,PDF,1,M1,Regulatory Submission,"Marion Gruber, PhD, Michelle Olsen","FDA Submission, Virus and Spyware Free, Biologics License Application, Center for Biologics Evaluation and Research, Messenger RNA, mRNA-1273 vaccine, Regulatory Affairs, Moderna, Response to Information Request, Vaccine Research and Review, eCTD Submission, Regulatory Compliance, Assays, Lipid Nanoparticle, BLA 125752, SARS-CoV-2, COVID-19",False,False,False,False
125752_S9_M1_cover-0009.pdf,Response to Information Requests for BLA 125752 for mRNA-1273 Vaccine,"October 04, 2021",https://drive.google.com/file/d/1QHELh8Ly00Is2Qt9mjXw-EwVz8pjNF7H/view?usp=drivesdk,md-production-120423,PDF,1,M1,Regulatory Submission,"Marion Gruber, PhD, Michelle Olsen","mRNA-1273, FDA Submission, Information Request Response, Virus and Spyware Free, Biologics License Application, COVID-19 Vaccine, Messenger RNA, Regulatory Affairs, Center for Biologics Evaluation and Research, Moderna, Document Control Center, Vaccine Research and Review, Regulatory Strategy, U.S. Food and Drug Administration, eCTD Submission, Lipid Nanoparticle, BLA 125752",False,False,False,False
125752_S9_M1_rsp-fda-cmts-clin-28sep2021-ir6.pdf,Response to FDA Comments on Clinical,28 September 2021,https://drive.google.com/file/d/1DTXIY50pZmBVUBwBaj_RzwopaNclT3F9/view?usp=drivesdk,md-production-120423,PDF,6,M1,Clinical response,"Moderna TX, Inc.","mRNA-1273, severe COVID-19, CDC definition, revised analysis, submission timeline, confidential, regulatory, pharmaceutical industry, shell tables, clinical data, FDA comments, respiratory failure, hospitalization, efficacy data, vaccine development, manufacturing processes, COVID-19 response",False,False,False,False
125752_S8_M1_rsp-fda-cmts-clinical-23sept2021.pdf,Response to FDA Comments on Clinical for mRNA-1273,23 September 2021,https://drive.google.com/file/d/1mM9LXkkClPplofJK1NN9oobZnu_x1ldj/view?usp=drivesdk,md-production-120423,PDF,1,M1,Clinical response,"Moderna TX, Inc.","mRNA-1273, random subcohort, immunogenicity, Battelle, clinical response, Pseudovirus VNA, Live Virus MN, Anti-S IgG Multiplex MSD, FDA comments, antibody quantification, binding antibodies, Anti-S-2P IgG ELISA, Duke, PPD, assay methods, neutralizing antibodies, VRC VIP, SARS-CoV-2",False,False,False,False
125752_S8_M1_cber-rqstd-tables-batch2.pdf,CBER Requested Tables (mRNA -1273 -P301),2022,https://drive.google.com/file/d/1xYPIzosJ35LC_qon1_5NfMW59SYJ72s1/view?usp=drivesdk,md-production-120423,PDF,131,M1,Clinical trial data,"ModernaTX, Inc.","mRNA-1273, Disposition, Safety Analysis, Efficacy Analysis, Solicited Adverse Reactions, Local Adverse Reactions, Onset Within 7 Days, ModernaTX, Inc., BLA # 125752, Onset After 7 Days, FDA-CBER-2022-908-0014565, Background Characteristics, Clinical Trial Overview, Overall Characteristics, BLA Application #125752, CBER Requested Tables, Confidential",False,False,False,False
125752_S5_M1_rsp-fda-cmts-clinical-17sept2021.pdf,Response to FDA Comments on Clinical,17 September 2021,https://drive.google.com/file/d/1MT-9DDUIWrrDwnW3Y3Rx-8D1UXWndOoP/view?usp=drivesdk,md-production-120423,PDF,3,M1,clinical response,"Moderna TX, Inc.","mRNA-1273, severe COVID-19, CDC definition, mechanical ventilation, intensive care unit, death, shock, ICU admission, FDA comments, protocol-specified definition, hepatic dysfunction, clinical trial, respiratory failure, ARDS, neurologic dysfunction, hospitalization, intubation, renal dysfunction",False,False,False,False
125752_S6_M1_cover-0006.pdf,Response to Information Request #1 for BLA 125752 for mRNA-1273 Vaccine,"September 22, 2021",https://drive.google.com/file/d/1_lqmg33NrQ5T245OgmlwySjOHMMGzaq8/view?usp=drivesdk,md-production-120423,PDF,1,M1,Submission Letter,"Marion Gruber, PhD, Michelle Olsen","FDA Submission, Information Request Response, mRNA-1273 Vaccine, Vaccine Development, Vaccine Efficacy, Vaccine Safety, Biologics License Application, Messenger RNA, Regulatory Affairs, Moderna, Vaccine Research and Review, Pediatric Study Plan, Pharmaceutical Regulatory Compliance, Lipid Nanoparticle, BLA 125752, Vaccine Clinical Trials, COVID-19",False,False,False,False
125752_S5_M1_form-3674.pdf,FDA Form 3674,2022,https://drive.google.com/file/d/1HmLmBVaNDOmlTeb1AoFudqYpOnDypSvD/view?usp=drivesdk,md-production-120423,PDF,3,M1,Application Form,,"Approval, Biotechnology, Clinical, Application, Compliance, Medical, Pharmaceutical, Regulatory, Form, CBER, Submission, FDA, Biologic, Healthcare, Research, Licensing, Government",False,False,False,False
125752_S7_M1_updated-rsp-ir1-14sept2021.pdf,"Moderna TX, Inc. mRNA-1273 Response to Comments on Safety","14 Sept, 21",https://drive.google.com/file/d/16nkAxkjvqya4TXFf-bDTkedWrR0eckjb/view?usp=drivesdk,md-production-120423,PDF,3,M1,Safety response,"Moderna TX, Inc.","mRNA-1273, Newborns, Maternal vaccination, Immunization, Infants, COVID-19 vaccine, Postnatal transmission, Vertical transmission, Moderna, Pediatric development plan, FDA comments, Children, Protective immunity, Reactogenicity, Effectiveness, Safety response, Clinical studies, Information request",False,False,False,False
125752_S6_M1_rsp-ir1-14sept2021.pdf,"Moderna TX, Inc. mRNA-1273 Response to Comments on Safety","14 Sept, 21",https://drive.google.com/file/d/1hHa9xJzmUh0lCQLvkp5FCCxg78bU4LL3/view?usp=drivesdk,md-production-120423,PDF,2,M1,Safety response,"Moderna TX, Inc.","mRNA-1273, Newborns, Maternal vaccination, Dose-finding, Placebo-controlled, Infants, COVID-19 vaccine, Postnatal transmission, Age de-escalation, Vertical transmission, Moderna, Pediatric development plan, FDA comments, Children, Protective immunity, Randomized study, Safety response, Health agencies",False,False,False,False
125752_S7_M1_cover-0007.pdf,Response to Information Requests for mRNA-1273 Biologics License Application,"September 27, 2021",https://drive.google.com/file/d/1z_ytHm0irYbRIWeU7W9oKZgRitMOvvxk/view?usp=drivesdk,md-production-120423,PDF,1,M1,Regulatory Submission,"Marion Gruber, PhD, Michelle Olsen","mRNA-1273, Vaccine development, Pediatric study, COVID-19 vaccine, Biologics License Application, Center for Biologics Evaluation and Research, Messenger RNA, Moderna, Coronavirus, FDA, Pharmaceutical industry, Regulatory submission, Information request response, Safety analysis, Lipid nanoparticle, Regulatory affairs, SARS-CoV-2",False,False,False,False
125752_S5_M1_cover-0005.pdf,Response to Information Requests for BLA 125752 for mRNA-1273 Vaccine,"September 21, 2021",https://drive.google.com/file/d/1bazOzLj6fx9Q6dgwYLmudi7QFJ_fGJPr/view?usp=drivesdk,md-production-120423,PDF,1,M1,Regulatory Submission,"Marion Gruber, PhD, Michelle Olsen","mRNA-1273, FDA Submission, Biotechnology, Vaccine Development, Biologics License Application, COVID-19 Vaccine, Messenger RNA, Regulatory Affairs, Regulatory Compliance, Moderna, Pharmaceutical Manufacturing, Vaccine Research and Review, Information Requests, Biologics Evaluation and Research, Lipid Nanoparticle, BLA 125752, SARS-CoV-2",False,False,False,False
125752_S5_M1_rsp-ir1-14sept2021.pdf,"Moderna TX, Inc. mRNA-1273 Response to Comments on Safety","14 Sept, 21",https://drive.google.com/file/d/1G5koAB-TAlZhuRa7S8y6cPZzfg2Oat6A/view?usp=drivesdk,md-production-120423,PDF,2,M1,Safety response,"Moderna TX, Inc.","mRNA-1273, Children 6 months to <12 years, Protocol submission, Study initiation, Information request, Moderna, Phase 2/3 study, Study completion, Pediatric development plan, FDA comments, Reactogenicity, Final report submission, Effectiveness, Safety response, Infants birth to <6 months, SARS-CoV-2 vaccine, Confidential",False,False,False,False
125752_S7_M1_rsp-fda-cmts-ir2-clinical-17sept2021.pdf,Response to FDA Comments on Clinical,17 September 2021,https://drive.google.com/file/d/1Lne3yzT8uI3wbTXF72lV-VYizO2VFDwk/view?usp=drivesdk,md-production-120423,PDF,6,M1,clinical response,"Moderna TX, Inc., FDA","mRNA-1273, randomized database, Part A, clinical response, SMQ analyses, serious adverse events, medically-attended adverse events, vaccine, Part B, FDA comments, safety profile, adverse reactions, follow-up time, data collection, blinded phase, CSR Addendum, adverse events leading to discontinuation",False,False,False,False
125752_S51_M1_cover-0051.pdf,Moderna BLA 125752 Sequence No. 0051 Response to Information Request,"January 27, 2022",https://drive.google.com/file/d/1A1S5n3IWpMKHEwuoAm9Za35gsRcMR9DB/view?usp=drivesdk,md-production-120423,PDF,1,M1,Regulatory Submission,"Peter Marks, MD PhD, Michelle Olsen","mRNA-1273, FDA Submission, Information Request, Prescribing Information, mRNA Technology, Vaccine Development, COVID-19 vaccine, Biologics License Application, Center for Biologics Evaluation and Research, Regulatory Compliance, Regulatory Affairs, Pharmaceutical Manufacturing, Moderna, Office of Vaccines Research and Review, Lipid Nanoparticle, BLA 125752, SARS-CoV-2",False,False,False,False
125752_S50_M1_mtng-mins-fda-tc-lots-20jan2022.pdf,Meeting Minutes - SPIKEVAX (elasomeran mRNA vaccine),"January 20, 2022",https://drive.google.com/file/d/1GTK2JWDXgZ5H7PWzxG2r2ZmsRPkNIBQd/view?usp=drivesdk,md-production-120423,PDF,1,M1,Meeting minutes,"Paul Granadillo, Jennifer White, Luis Mustafa, Paul Dawidczyk, Michelle Olsen, Sudhakar Agnihothram, Joseph Kulinski, Maryna Eichelberger","Lot release, DBSQC, Microbiology, OVRR, BLA, Regulatory approval, Supply chain, SPIKEVAX, Moderna, Quality, CBER, CMC, Regulatory affairs, Infectious diseases, EUA labelled material, Launch lots, mRNA vaccine",False,False,False,False
125752_S51_M1_draft-labeling-text-patient-info-clean.pdf,"HIGHLIGHTS OF PRESCRIBING INFORMATION for SPIKEVAX (COVID-19 Vaccine, mRNA)","January 27, 2022",https://drive.google.com/file/d/11WmsnimYcMoq_YK7nbJrKOIGAIAw3gBq/view?usp=drivesdk,md-production-120423,PDF,19,M1,Prescribing information,,"Warnings and precautions, Intramuscular injection, Chills, Immunization, Headache, Pericarditis, Contraindications, Suspension for injection, Myocarditis, Fever, mRNA vaccine, COVID-19 vaccine, Dosage and administration, Prescribing information, Adverse reactions, Injection site reactions, Initial U.S. approval, Fatigue, SARS-CoV-2",False,False,False,False
125752_S51_M1_draft-labeling-text-patient-info-redline.pdf,"HIGHLIGHTS OF PRESCRIBING INFORMATION for SPIKEVAX (COVID-19 Vaccine, mRNA)","January 27, 2022",https://drive.google.com/file/d/1pu2SxLRMQCQcVKNDt4isBI3gsDcmuaRJ/view?usp=drivesdk,md-production-120423,PDF,18,M1,Prescribing Information,,"Immunization, Adverse reactions, Injection site reactions, Chills, COVID-19 vaccine, Headache, Warnings and precautions, Pericarditis, Dosage and administration, Contraindications, Fatigue, Suspension for injection, Intramuscular injection, Myocarditis, Fever, mRNA vaccine, SARS-CoV-2, Prescribing information",False,False,False,False
125752_S52_M1_cover-0052.pdf,Moderna BLA 125752 Sequence No. 0052 Submission,"January 28, 2022",https://drive.google.com/file/d/1AbqD2O2SSo0LZdQBLLTEPNjaEp2llJd8/view?usp=drivesdk,md-production-120423,PDF,1,M1,Labeling Submission,"Peter Marks, MD PhD, Michelle Olsen","mRNA-1273, Prescribing Information, FDA Submission, Biotechnology, mRNA-based vaccine, Pharmaceutical Development, COVID-19 vaccine, Biologics License Application, Regulatory Compliance, Regulatory Affairs, Moderna, Coronavirus, Labeling, Lipid Nanoparticle, BLA 125752, Vaccine Technology, SARS-CoV-2",False,False,False,False
125752_S52_M1_draft-labeling-text-patient-info-clean.pdf,"HIGHLIGHTS OF PRESCRIBING INFORMATION for SPIKEVAX (COVID-19 Vaccine, mRNA)","January 28, 2022",https://drive.google.com/file/d/1gqoPvd8KfhVNelAOHPu_f2_ko4tZ74M_/view?usp=drivesdk,md-production-120423,PDF,18,M1,Prescribing information,,"COVID-19 vaccine, dosage and administration, intramuscular injection, vaccine efficacy, prescribing information, vaccine administration, vaccine side effects, adverse reactions, indications and usage, warnings and precautions, suspension for injection, vaccine approval, vaccine guidelines, mRNA vaccine, vaccine safety, SARS-CoV-2, contraindications",False,False,False,False
125752_S50_M1_cover-0050.pdf,Meeting Minutes - FDA Teleconference Regarding Launch Lots,"January 26, 2022",https://drive.google.com/file/d/1KREdYGtbfDuXnBCpGo5b6kmtenA8jL_i/view?usp=drivesdk,md-production-120423,PDF,1,M1,Meeting Minutes,"Peter Marks, MD PhD, Michelle Olsen","mRNA-1273, regulatory affairs, launch lots, virus and spyware free, COVID-19 vaccine, eCTD, Center for Biologics Evaluation and Research, FDA teleconference, Moderna, messenger RNA, U.S. Food and Drug Administration, Office of Vaccines Research and Review, lipid nanoparticle, Palo Alto Traps, BLA 125752, regulatory submission, biologics license application",False,False,False,False
125752_S51_M1_rsp-fda-on-info-req48-26jan2022.pdf,Response to FDA on Information Request #48,26 January 2022,https://drive.google.com/file/d/1TB0Oj0nTeNbCGaYAP4-5KbLRKzIPGVit/view?usp=drivesdk,md-production-120423,PDF,1,M1,Regulatory response,"ModernaTx, Inc.","Vaccine post-marketing surveillance, FDA information request, elasomeran mRNA vaccine, COVID-19 vaccine, Adverse event reporting, Vaccine safety, Vaccine efficacy, SPIKEVAX, Moderna, Unsolicited Adverse Events, Pharmaceutical industry, Delayed injection site reactions, Regulatory submission, Clinical data, Vaccine side effects, Vaccine development, Vaccine clinical trials",False,False,False,False
125752_S52_M1_draft-labeling-text-patient-info-redline.pdf,"HIGHLIGHTS OF PRESCRIBING INFORMATION for SPIKEVAX (COVID-19 Vaccine, mRNA)","January 28, 2022",https://drive.google.com/file/d/11kGB7daGgIJJznXQjpUfaNzpBudsgdrM/view?usp=drivesdk,md-production-120423,PDF,18,M1,Prescribing Information,,"Immunization, Adverse reactions, Injection site reactions, Chills, COVID-19 vaccine, Headache, Warnings and precautions, Pericarditis, Dosage and administration, Contraindications, Fatigue, Suspension for injection, Myalgia, Intramuscular injection, Myocarditis, mRNA vaccine, SARS-CoV-2, Prescribing information",False,False,False,False
125752_S46_M1_cover-0046.pdf,Response to Information Request for mRNA-1273 Biologics License Application,"January 14, 2022",https://drive.google.com/file/d/1IdOxJgT78b_TlH02wYm7xqdRqxaFO1i-/view?usp=drivesdk,md-production-120423,PDF,1,M1,Regulatory Submission,"Peter Marks, Michelle Olsen","mRNA-1273, Information Request, Vaccine Development, COVID-19 vaccine, Pharmaceutical Development, Biologics License Application, Messenger RNA, Vaccine Licensing, Regulatory Affairs, Vaccine Regulation, Moderna, FDA, Vaccine Approval, Regulatory Submission, Lipid Nanoparticle, Coronavirus, SARS-CoV-2",False,False,False,False
125752_S44_M1_cover-0044.pdf,Response to Information Request #43 for mRNA-1273 BLA,"January 10, 2022",https://drive.google.com/file/d/193invDjp8y7kgbFaEzUNS3ByNaTyK99S/view?usp=drivesdk,md-production-120423,PDF,1,M1,Regulatory Submission,"Marion Gruber, PhD, Michelle Olsen","mRNA-1273, COVID-19 vaccine, BLA, Biologics License Application, Messenger RNA, Moderna, Vaccine research and review, FDA, Regulatory strategy, Biologics Evaluation and Research, Regulatory submission, Lipid nanoparticle, Safety data, Vaccine development, Regulatory affairs, SARS-CoV-2, Information request",False,False,False,False
125752_S40_M5_table-14-3-1-37-3-2.pdf,Summary of Syncope up to 7 Days After Each Injection,04MAY2021,https://drive.google.com/file/d/1PJgkp-2fOJGCsQIhoB5btRG5kXWdmob0/view?usp=drivesdk,md-production-120423,PDF,2,M5,Clinical trial data,,"mRNA-1273, medical terminology, placebo-controlled, data analysis, syncope, BLA, vaccine, safety data, adverse events, Moderna, CBER, MedDRA, FDA, clinical trial, dose comparison, statistical reporting, COVID-19",False,False,False,False
125752_S46_M1_rsp-fda-on-info-req45-13jan2022.pdf,Response to FDA on Information Request #45,13 January 2022,https://drive.google.com/file/d/1reEXkp1EocY1Wmcm6a-HtOqL4Wtcznua/view?usp=drivesdk,md-production-120423,PDF,3,M1,Clinical response,"ModernaTx, Inc.","regulatory affairs, FDA information request, pharmaceutical response, COVID-19 vaccine, medical research, vaccine development, safety data, SPIKEVAX, adverse events, myocardial infarction, clinical data, clinical study P301, vaccine side effects, vaccine efficacy, mRNA vaccine, chest pain, vaccine safety",False,False,False,False
125752_S40_M5__table-14-3-1-37-4.pdf,Summary of Deep Vein Thrombosis up to 28 Days After Each Injection,04MAY2021,https://drive.google.com/file/d/1qT-BZcmQ5TzEUhZD9k58jEgUNJDxj64k/view?usp=drivesdk,md-production-120423,PDF,2,M5,Clinical trial data,,"mRNA-1273, medical data, deep vein thrombosis, medical research, pharmaceutical, BLA, data extraction, vaccine, safety data, injection, adverse events, Moderna, MedDRA, statistical analysis, FDA, clinical trial, COVID-19",False,False,False,False
125752_S49_M1_rsp-fda-on-info-req47-24jan2022.pdf,Response to FDA on Information Request #47,24 Jan 2022,https://drive.google.com/file/d/18QyOzVANsacfLOi2JExOHIpIzQgvMoUw/view?usp=drivesdk,md-production-120423,PDF,1,M1,Medical response,Subject US3352594,"FDA information request, randomized trial, participant withdrawal, case narrative, study procedures, SPIKEVAX, adverse events, Moderna, medical history, fatigue, study drug, Hispanic or Latino, chills, situational anxiety, muscle aches, joint aches, mRNA vaccine",False,False,False,False
125752_S4_M1_cber-rqstd-tables.pdf,CBER Requested Tables,2022,https://drive.google.com/file/d/1l6PTPl-T0ZT1Toz1KE2TrnPfpM4aOEty/view?usp=drivesdk,md-production-120423,PDF,108,M1,Clinical report,"ModernaTX, Inc.","mRNA-1273, Disposition, Overall Characteristics, Safety Analysis, Efficacy Analysis, CONFIDENTIAL, Solicited Adverse Reactions, Local Adverse Reactions, Onset Within 7 Days, Moderna, Onset After 7 Days, Vaccine, FDA, Background Characteristics, Clinical Trial Overview, FDA-CBER-2022-908-0014434, BLA Application #125752",False,False,False,False
125752_S4_M1_cover-0004.pdf,Moderna BLA Submission for mRNA-1273 Vaccine,"September 15, 2021",https://drive.google.com/file/d/1ADfFAzV5tDIS08W3QDlp76kWBgHhISw9/view?usp=drivesdk,md-production-120423,PDF,1,M1,Regulatory Submission,"Marion Gruber, PhD, Michelle Olsen","mRNA-1273, Vaccine Development, Biologics License Application, COVID-19 Vaccine, Regulatory Compliance, Regulatory Affairs, Moderna, mRNA-based Vaccine, CBER, Vaccine Research and Review, FDA, eCTD Submission, Pharmaceutical Regulatory, Lipid Nanoparticle, Coronavirus, BLA Submission, SARS-CoV-2",False,False,False,False
125752_S40_M5__table-14-3-1-37-3-1.pdf,Summary of Dyspnoea up to 7 Days After Each Injection,04MAY2021,https://drive.google.com/file/d/1lhaGekOz2-j3TPId3FQOd-nNtWXg4Y1A/view?usp=drivesdk,md-production-120423,PDF,2,M5,Clinical trial data,,"mRNA-1273, onset day, placebo, data analysis, statistical report, dyspnoea, BLA, vaccine, safety data, injection, adverse events, Moderna, MedDRA, CBER, FDA, clinical trial, COVID-19",False,False,False,False
125752_S49_M1_cover-0049.pdf,Response to Information Request for mRNA-1273 Biologics License Application,"January 25, 2022",https://drive.google.com/file/d/1Sql9YSaXSzMihR_azdijo1hh1nQiM12h/view?usp=drivesdk,md-production-120423,PDF,1,M1,Regulatory Submission,"Peter Marks, MD PhD, Michelle Olsen","mRNA-1273, Information Request, Vaccine Development, COVID-19 vaccine, eCTD, Biologics License Application, Messenger RNA, Virus and Spyware Free, Regulatory Affairs, Moderna, FDA, Regulatory Affairs Strategy, Biologics Evaluation and Research, Vaccines Research and Review, Regulatory Submission, Lipid Nanoparticle, SARS-CoV-2",False,False,False,False
125752_S38_M1_cover-0038.pdf,Response to FDA Comments on Information Request #32,"December 17, 2021",https://drive.google.com/file/d/15iTPvihLsWrvzd1Gl1dSeFQkd-bBRp-M/view?usp=drivesdk,md-production-120423,PDF,1,M1,Regulatory submission,"Marion Gruber, PhD, Michelle Olsen","mRNA-1273, response to comments, regulatory affairs, FDA review, COVID-19 vaccine, eCTD, messenger RNA, Moderna, analytical method, information request, coronavirus, vaccine research and review, lipid nanoparticle, BLA 125752, regulatory submission, SARS-CoV-2, biologics license application",False,False,False,False
125752_S40_M1_rsp-fda-cmts-info-req37-16dec2021.pdf,Response to FDA Comments on Information Request #37,16 December 2021,https://drive.google.com/file/d/1YRQaPL74uA-tSSOWLpPcFLprfX2TwCqR/view?usp=drivesdk,md-production-120423,PDF,4,M1,Response,"ModernaTx, Inc., SPIKEVAX (elasomeran mRNA vaccine)","data management, data sets, regulatory response, regulatory compliance, FDA information request, data analysis, COVID-19 vaccine, vaccine development, SPIKEVAX, data quality, data categorization, adverse reactions, data reporting, data submission, clinical trial data, mRNA vaccine, data integrity",False,False,False,False
125752_S40_M1_rsp-fda-cmts-ir35-26nov2021.pdf,Response to FDA Comments on Information Request #35,"November 26, 2021",https://drive.google.com/file/d/1sAZ145NszC7HPh9oM7NHjUvlLX-1RQYI/view?usp=drivesdk,md-production-120423,PDF,3,M1,Technical response,"ModernaTX, Inc.","mRNA-1273, regulatory compliance, FDA information request, purity testing, COVID-19 vaccine, confidential, technical response, SOP-1142, stability samples, method validation, SPIKEVAX, linearity, acceptance criteria, spiking, product quality, mRNA vaccine, supplemental validation",False,False,False,False
125752_S39_M1_rsp-fda-cmts-info-req36-16dec2021.pdf,Response to FDA Comments on Information Request #36,16 December 2021,https://drive.google.com/file/d/1CJ6emfvqrMkYKgareQHvwi35dnU_Tm3Q/view?usp=drivesdk,md-production-120423,PDF,4,M1,Safety Data Response,,"Information Request, Dose 1, Vertigo, Clinical Study Report, Vaccine Development, Placebo, Dose 2, Vaccine Safety, Vaccine Efficacy, SPIKEVAX, Moderna, FDA Comments, Lymphadenopathy, Adverse Events, Regulatory Submission, mRNA vaccine, Safety Data",False,False,False,False
125752_S38_M1_rsp-fda-cmts-ir32-cmc-10dec2021.pdf,Response to FDA Comments on Information Request #32 for BLA 125752,10 December 2021,https://drive.google.com/file/d/1XecxIHF3qXW_ehOP444Y_z8EVMs7LQ2Y/view?usp=drivesdk,md-production-120423,PDF,7,M1,Regulatory response,"ModernaTX, Inc.","Information Request #32, Biotechnology, LAL procedure, FDA communication, COVID-19 vaccine, Lipid nanoparticles (LNPs), Pharmaceutical development, Vaccine manufacturing, SPIKEVAX, Confidential document, Regulatory affairs, Analytical method validation, Pharmaceutical industry, Quality control, BLA 125752, Endotoxin testing, Regulatory compliance",False,False,False,False
125752_S39_M1_cover-0039.pdf,Response to Information Request #36 for BLA 125752 for mRNA-1273 Vaccine,"December 20, 2021",https://drive.google.com/file/d/1BiXc-HR8yNgCcquzAg18JVwzP47EXsZn/view?usp=drivesdk,md-production-120423,PDF,1,M1,Regulatory Submission,"Marion Gruber, PhD, Michelle Olsen","mRNA-1273, Information Request, FDA Submission, Vaccine Development, Biologics License Application, COVID-19 Vaccine, Messenger RNA, Regulatory Affairs, Regulatory Compliance, Moderna, Virus-free, Spyware-free, Lipid Nanoparticle, Palo Alto Traps, BLA 125752, SARS-CoV-2, Safety Data",False,False,False,False
125752_S40_M1_rsp-fda-cmts-info-req39-17dec2021.pdf,Response to FDA Comments on Information Request #39,17 December 2021,https://drive.google.com/file/d/1vNz2JOMBrOKdSwOiuXdJpcoqu9qcp9NT/view?usp=drivesdk,md-production-120423,PDF,5,M1,Clinical Study Response,"ModernaTx, Inc.","mRNA-1273, Information Request, Dose 1, Onset Day, Placebo, Dyspnea, COVID-19 Vaccine, Dose 2, SPIKEVAX, Underlying Conditions, FDA Comments, Duration, Adverse Events, Concomitant Medications, mRNA Vaccine, Study P301, Safety Data, Syncope",False,False,False,False
125752_S40_M1_cover-0040.pdf,"Response to Information Request #35, #37, and #39 for BLA 125752 for mRNA-1273 Vaccine","December 20, 2021",https://drive.google.com/file/d/1yYeeqontw5DKFpNoblUn44VIfzRDOXIz/view?usp=drivesdk,md-production-120423,PDF,1,M1,Regulatory Submission,"Marion Gruber, PhD, Michelle Olsen","mRNA-1273, Information Request, FDA Submission, Vaccine Development, eCTD, Biologics License Application, COVID-19 Vaccine, Regulatory Compliance, Regulatory Affairs, Moderna, Virus-free, Spyware-free, RNA Integrity, Lipid Nanoparticle, Palo Alto Traps, SARS-CoV-2, Safety Data",False,False,False,False
125752_S33_M1_rsp-fda-cmts-info-req30-10dec2021.pdf,Response to FDA Comments on Information Request #30,10 December 2021,https://drive.google.com/file/d/1GSD5-YtK5EZjW1h6PbUZebGGOsBrxVs6/view?usp=drivesdk,md-production-120423,PDF,2,M1,Information Request Response,"ModernaTx, Inc., FDA","mRNA-1273, Information Request, Immunization, Facial Paralysis, Pandemic Response, Clinical Trial, COVID-19 vaccine, Vaccine Development, Biotech, Pharmaceutical, Regulatory Affairs, SPIKEVAX, Medical Research, Safety, Adverse Events, Regulatory Submission, Bell's Palsy",False,False,False,False
125752_S32_M1_rsp-fda-cmts-clin-19nov2021.pdf,"Response to FDA Comments on Clinical Dated November 19, 2021","November 19, 2021",https://drive.google.com/file/d/1qtT0VgsSGHVxVE1LluZ7r3mmycUtDdjD/view?usp=drivesdk,md-production-120423,PDF,10,M1,Response,"ModernaTx, Inc., CBER","datasets, definition, analysis, update, response, fda, application, vaccine, adverse-events, submission, clinical, resolution, safety, covid-19, dose, moderna, comments",False,False,False,False
125752_S33_M1_cover-0033.pdf,Response to FDA Comments on Information Request #30,"December 13, 2021",https://drive.google.com/file/d/1JTeAJME5EXjrWkHJTOtW1pIwXU7gmwCE/view?usp=drivesdk,md-production-120423,PDF,1,M1,Regulatory Submission,"Marion Gruber, PhD, Michelle Olsen","mRNA-1273, FDA review, COVID-19 vaccine, Lipid nanoparticle (LNP), Biologics License Application (BLA), U.S. Food and Drug Administration (FDA), Pharmaceutical development, Moderna, Vaccine research and review, Adverse events, Messenger RNA (mRNA), Regulatory submission, Center for Biologics Evaluation and Research (CBER), Vaccine development, Regulatory affairs, SARS-CoV-2, Information request",False,False,False,False
125752_S28_M1_rsp-fda-cmts-info-req24-30nov2021.pdf,"Response to FDA Comments on Information Request #24 Dated November 30, 2021","November 30, 2021",https://drive.google.com/file/d/1uze4MiuB7Xv6PhDU7JfshFWz7BaGcCNU/view?usp=drivesdk,md-production-120423,PDF,4,M1,Information Request Response,"ModernaTx, Inc.","mRNA-1273, COVID-19 symptoms, data analysis, COVID-19 vaccine, SARS-CoV-2 infection, RT-PCR, N-serology, SPIKEVAX, vaccine efficacy, clinical data, FDA comments, information request, Per-Protocol Set, blinded efficacy follow-up, asymptomatic infection, regulatory submission, sensitivity analysis",False,False,False,False
125752_S27_M1_cover-0027.pdf,Moderna BLA 125752 Sequence No. 0027 Submission,"November 1, 2021",https://drive.google.com/file/d/1It78bur-dKY0_Ws01aTY1_HQVZS-Ru1D/view?usp=drivesdk,md-production-120423,PDF,2,M1,Regulatory Submission,"Marion Gruber, PhD","mRNA-1273, COVID-19 vaccine, Biologics License Application, Center for Biologics Evaluation and Research, Messenger RNA, Lipid Nanoparticle, Moderna, Coronavirus, FDA, Reactogenicity, Adverse Events, Regulatory Submission, SDTM datasets, Office of Vaccines Research and Review, BLA 125752, Solicited Symptoms, SARS-CoV-2",False,False,False,False
125752_S23_M1_cover-0023.pdf,Moderna BLA 125752 Sequence No. 00 Response to Information Request #19,"November 16, 2021",https://drive.google.com/file/d/1yJx4BphN4AbiomD3udUsf0Dqmf0cmM-7/view?usp=drivesdk,md-production-120423,PDF,1,M1,Regulatory Submission,"Marion Gruber, PhD, Michelle Olsen","mRNA-1273, FDA Submission, Information Request, mRNA-based vaccine, COVID-19 vaccine, eCTD, Biologics License Application, Regulatory Compliance, Virus and Spyware Free, Regulatory Affairs, Moderna, Safety, Coronavirus, Lipid Nanoparticle, Palo Alto Traps, BLA 125752, SARS-CoV-2",False,False,False,False
125752_S28_M1_cover-0028.pdf,Response to Information Request #24 regarding clinical information for mRNA-1273 BLA,"December 2, 2021",https://drive.google.com/file/d/1UZn8-OeH3pQVdB6XP98da5zQQzIlD_Cq/view?usp=drivesdk,md-production-120423,PDF,1,M1,Regulatory submission,"Marion Gruber, PhD, Michelle Olsen","mRNA-1273, regulatory affairs, COVID-19 vaccine, eCTD, BLA, messenger RNA, Moderna, clinical data, information request, FDA, CBER, coronavirus, vaccine research and review, lipid nanoparticle, regulatory submission, SARS-CoV-2, biologics license application",False,False,False,False
125752_S23_M1__rsp-fda-cmts-safety-10nov2021.pdf,Response to FDA Comments on Safety,10 Nov 2021,https://drive.google.com/file/d/1Q4mU3ovmKkwZWuJaYjVHhdpFrZ9HCqIJ/view?usp=drivesdk,md-production-120423,PDF,18,M1,Safety report,"ModernaTX, Inc, FDA","Vaccine response, Vaccine safety, COVID-19 vaccine, Clinical trial data, Vaccine safety monitoring, Safety signal, SPIKEVAX, Moderna, Vaccine surveillance, Adverse events, Postmarketing safety, Herpes zoster, Vaccine side effects, Pharmacovigilance, Vaccine development, Regulatory affairs, Observed-to-expected analysis",False,False,False,False
125752_S32_M1_cover-0032.pdf,Updated Analyses Pertaining to Updated Datasets,"December 10, 2021",https://drive.google.com/file/d/13XxBToI05TGwDEfyoFlQFvwcUyaDqYk7/view?usp=drivesdk,md-production-120423,PDF,1,M1,Regulatory Submission,"Marion Gruber, PhD, Michelle Olsen","mRNA-1273, Adverse reactions, COVID-19 vaccine, eCTD, Biologics License Application, Messenger RNA, Center for Biologics Evaluation and Research, Moderna, Vaccine research and review, Regulatory affairs, Document Control Center, Regulatory strategy, FDA submission, Lipid nanoparticle, BLA 125752, Virus and spyware free, SARS-CoV-2",False,False,False,False
125752_S21_M5_real-world-effect-study-v3.pdf,Real-World Effect Study,2021,https://drive.google.com/file/d/1IswAWxkJ2lp4INvOj8qPArAz374Tzk7Q/view?usp=drivesdk,md-production-120423,PDF,41,M5,Study Report,,"Data Analysis, Epidemiology, Biostatistics, Clinical Trial, Vaccine Efficacy, Public Health, Vaccine Development, Regulatory Compliance, Medical Reporting, CBER, Healthcare, FDA, Adverse Events, Pharmacovigilance, Real-World Study, Pharmaceutical Research, Immunology",False,False,False,False
125752_S1_M1_form-3397.pdf,PRESCRIPTION DRUG USER FEE COVERSHEET FY 2021,5/27/2021,https://drive.google.com/file/d/1sHBVqVpnd9lgg439jKp2lXbr2hTVwMmc/view?usp=drivesdk,md-production-120423,PDF,8,M1,form,"Modernatx, Inc.","mRNA-1273, orphan exception, application, BLA, Moderna, clinical data, form, user fee, FDA, drug distribution, priority review voucher, biologic product, NDA, OMB, PDUFA, prescription drug, government entity",False,False,False,False
125752_S18_M1_rsp-fda-cmts-clin-22oct2021.pdf,Response to FDA Comments on Clinical,22 October 2021,https://drive.google.com/file/d/1rWj6CPmp715l50ceSrfMuT9c4NU69Dca/view?usp=drivesdk,md-production-120423,PDF,4,M1,Clinical response,"Moderna TX, Inc.","mRNA-1273, regulatory response, medical research, pharmaceutical development, participant reported, symptom log, adverse event reporting, FDA comments, solicited adverse reactions, sensitivity analysis, clinical topics, clinical trial data, e-diary, unsolicited AEs, vaccine safety, SARS-CoV-2, COVID-19 symptoms",False,False,False,False
125752_S20_M1_ce-mapping.pdf,CE Mapping,2020,https://drive.google.com/file/d/1MYURMUKHUEpAeQQEJ9WwXO9DQRCW9wNO/view?usp=drivesdk,md-production-120423,PDF,3,M1,Technical Documentation,,"data analysis, reactogenicity, data standards, data validation, data processing, data governance, data visualization, adverse events, data quality, clinical data, data mapping, data transformation, data reporting, case examples, data normalization, SDTM, data integrity",False,False,False,False
125752_S20_M1_cover-0020_.pdf,Moderna BLA 125752 Submission for mRNA-1273 Vaccine,"November 05, 2021",https://drive.google.com/file/d/1W97SU70fsIZw2Hc3UrtEiVYx7cpTY-DL/view?usp=drivesdk,md-production-120423,PDF,2,M1,Meeting Minutes and Follow-up,"Marion Gruber, PhD, Michelle Olsen","mRNA-1273, FDA Submission, Datasets, Teleconference, Therapeutic Area User Guide, Biologics License Application, COVID-19 Vaccine, Messenger RNA, Regulatory Affairs, Virus and Spyware Free, Moderna, eCTD Submission, Meeting Minutes, Adverse Events, Lipid Nanoparticle, BLA 125752, SARS-CoV-2",False,False,False,False
125752_S20_M1_rsp-fda-cmts-clin-28oct2021.pdf,"Response to FDA Comments on Clinical Dated October 28, 2021","October 28, 2021",https://drive.google.com/file/d/1CfoaxBpL6CYlSZB5zRGbFd1E0oaczJZL/view?usp=drivesdk,md-production-120423,PDF,21,M1,Response,Dr. Olsen,"mRNA-1273, Safety Results, Clinical, Information Request, Pharmaceutical Industry, Solicited Safety, Vaccine Development, Unsolicited Safety, COVID-19 Vaccine, Data Submission, Regulatory Compliance, SPIKEVAX, FDA Comments, Moderna TX, CBER Requested Tables, SDTM Define File, Teleconference",False,False,False,False
125752_S1_M1_cover-0001.pdf,Biologics License Application (BLA) for mRNA-1273 Vaccine,"May 28, 2021",https://drive.google.com/file/d/14jvMtGfs1ASnEeHGyzrxFNJxHfL_7v8k/view?usp=drivesdk,md-production-120423,PDF,2,M1,Regulatory Submission,"Marion Gruber, PhD, Moderna","mRNA-1273, FDA Submission, Immunization, Coronavirus Disease 2019, Emergency Use Authorization, Biologics License Application, COVID-19 Vaccine, Center for Biologics Evaluation and Research, Messenger RNA, Public Health Service Act, Moderna, Regulatory Affairs, Vaccine Research and Review, Pandemic and All-Hazards Preparedness Reauthorization Act, Vaccine Indication, Lipid Nanoparticle, SARS-CoV-2",False,False,False,False
125752_S21_M1_cover-0021.pdf,Moderna BLA 125752 Sequence No. 0021,"November 09, 2021",https://drive.google.com/file/d/1-cQ50NA6ZqDIu4T0i6jqeaeqxLHPZFtd/view?usp=drivesdk,md-production-120423,PDF,1,M1,Regulatory Submission,"Marion Gruber, PhD, Michelle Olsen","mRNA-1273, FDA Submission, Clinical Responses, Information Request, COVID-19 vaccine, Biologics License Application, Center for Biologics Evaluation and Research, Messenger RNA, Regulatory Affairs, Regulatory Compliance, Moderna, Vaccine Research and Review, Coronavirus, Real World Effectiveness Study, Lipid Nanoparticle, BLA 125752, SARS-CoV-2",False,False,False,False
125752_S20_M1_rsp-fda-cmts-ir11-cmc-22oct2021.pdf,Response to FDA Comments on CMC Received on 22 October 2021,22 October 2021,https://drive.google.com/file/d/1wj_C3IirTLpIpFPFHu2kQPBojlDqPBwr/view?usp=drivesdk,md-production-120423,PDF,13,M1,Technical Response,"Moderna TX, Inc.","mRNA-1273, RNA Encapsulation, Response Factor, Vaccine Development, System Suitability, Biopharmaceuticals, Positive Control, Analytical Techniques, Pharmaceutical Manufacturing, FDA Comments, Moderna, CMC, Method Development, Assay Qualification, Regulatory Submission, Protein Expression, Quality Control",False,False,False,False
125752_S18_M1_cover-0018.pdf,Response to Information Request #12 for BLA 125752 for mRNA-1273 Vaccine,"October 29, 2021",https://drive.google.com/file/d/14mQLl6Vp_Dtl8ET7Cu2Q-s_PXF-zwCP-/view?usp=drivesdk,md-production-120423,PDF,1,M1,Regulatory Submission,"Marion Gruber, PhD, Michelle Olsen","mRNA-1273, Lipid nanoparticle, COVID-19 vaccine, Biologics License Application, Messenger RNA, Center for Biologics Evaluation and Research, Moderna, Vaccine research and review, Document Control Center, Regulatory strategy, FDA submission, Regulatory compliance, Vaccine development, BLA 125752, Regulatory affairs, SARS-CoV-2, Information request",False,False,False,False
125752_S15_M1_cover-0015.pdf,Letter of Authorization for BLA 125752 for mRNA-1273 Vaccine,"October 19, 2021",https://drive.google.com/file/d/1AGMQAwYEefpUfqpnyLLJr3DanUAeZzql/view?usp=drivesdk,md-production-120423,PDF,1,M1,Letter,"Marion Gruber, PhD, Michelle Olsen","mRNA-1273, COVID-19 vaccine, Biologics License Application, Center for Biologics Evaluation and Research, Messenger RNA, Letter of authorization, Moderna, Vaccine research and review, Regulatory affairs, FDA, Pharmaceutical submission, Lipid nanoparticle, Vaccine development, BLA 125752, Vaccine authorization, SARS-CoV-2, Regulatory compliance",False,False,False,False
125752_S16_M1_rsp-fda-cmts-ir5-group3-24sept2021.pdf,Response to FDA Comments on Clinical,24 September 2021,https://drive.google.com/file/d/16C_u-rnx6MshgWN7zzhgFB-kNogfVmDk/view?usp=drivesdk,md-production-120423,PDF,4,M1,Clinical response,"Moderna TX, Inc.","mRNA-1273, data management, regulatory response, vaccine clinical trial, regulatory compliance, data analysis, pharmaceutical development, data quality control, adverse events, data quality, clinical data, FDA comments, data categorization, data standardization, data reporting, data consistency, data integrity",False,False,False,False
125752_S11_M1_rsp-fda-cmts-ir5-group1-24sept2021.pdf,Response to FDA Comments on Clinical mRNA-1273,24 September 2021,https://drive.google.com/file/d/13zTgmlay1960zi2RUce_5rbhJ5Rc8w_R/view?usp=drivesdk,md-production-120423,PDF,9,M1,Clinical response,"Moderna TX, Inc.","mRNA-1273, regulatory compliance, P301 study, SDTM define file, reactogenicity, pharmaceutical, recovered/resolved AEs, vaccine development, clinical response, data quality, FDA comments, AE categorization, data submission, AE dataset, safety analysis, event duration, COVID-19",False,False,False,False
125752_S11_M1_cover-0011.pdf,Moderna BLA 125752 Sequence No. 0011,"October 08, 2021",https://drive.google.com/file/d/1IU9NCVhY5yvN9lZjaNI8J_kr4Px8p392/view?usp=drivesdk,md-production-120423,PDF,2,M1,Regulatory Submission,"Marion Gruber, PhD, Michelle Olsen","mRNA-1273, Adverse reactions, CBER requested tables, COVID-19 vaccine, Biologics License Application, Messenger RNA, Center for Biologics Evaluation and Research, Moderna, Vaccine research and review, Coronavirus, CMC information request, Regulatory submission, Lipid nanoparticle, U.S. Food and Drug Administration, BLA 125752, SARS-CoV-2, Clinical information request",False,False,False,False
125752_S11_M1_rsp-fda-cmts-ir3-cmc-23sept2021.pdf,Response to FDA Comments on CMC Dated 23 September 2021,23 September 2021,https://drive.google.com/file/d/1_aTOiN3RRapwBoWqAhEYndSvXP2Qkk1Y/view?usp=drivesdk,md-production-120423,PDF,2,M1,Technical Response,"Moderna TX, Inc.","mRNA-1273, Impurities, Confidential, Drug Product, Stability, Pharmaceutical Development, Biopharmaceuticals, Bridging Study, FDA Comments, CMC, Vaccine, RP-HPLC, Method Validation, Regulatory Submission, Drug Substance, Quality Control, Analytical Methods",False,False,False,False
125752_S11_M1_cber-req-tables-mrna-1273.pdf,CBER Requested Tables mRNA -1273,2022,https://drive.google.com/file/d/1YdWX0z1czchCAvEdL7-jpRt6z5nPUulJ/view?usp=drivesdk,md-production-120423,PDF,184,M1,Clinical trial report,"ModernaTX, Inc.","mRNA-1273, Background characteristics, Disposition, Adverse reactions, Onset of adverse reactions, CBER requested tables, Solicited adverse reactions, Moderna, Overall safety, Vaccine, FDA, Clinical trial, Safety analysis, BLA 125752, Local adverse reactions, Efficacy analysis, Confidential",False,False,False,False
125752_S16_M1_cover-0016.pdf,"Response to Information Request #5, Group #3 for BLA 125752 for mRNA-1273 Vaccine","October 25, 2021",https://drive.google.com/file/d/1xaE3MAPYSAdctVOp4TF6ZXokGRfxDHXU/view?usp=drivesdk,md-production-120423,PDF,1,M1,Regulatory Submission,"Marion Gruber, PhD, Michelle Olsen","mRNA-1273, FDA Submission, Information Request, Vaccine Development, Biologics License Application, COVID-19 Vaccine, Messenger RNA, Regulatory Affairs, Regulatory Compliance, Moderna, Vaccine Research and Review, Biologics Evaluation and Research, Pharmaceutical Regulatory Affairs, Lipid Nanoparticle, Coronavirus, Vaccine Technology, SARS-CoV-2",False,False,False,False
125752_S12_M1_cover-0012.pdf,Responses to CMC Information Requests for mRNA-1273 BLA,"October 13, 2021",https://drive.google.com/file/d/1TPB4pA000HP9NsxdTXE8FBDBW4XG16ro/view?usp=drivesdk,md-production-120423,PDF,1,M1,Regulatory Submission,"Marion Gruber, PhD, Michelle Olsen","mRNA-1273, Pandemic response, COVID-19 vaccine, BLA, Biologics License Application, Center for Biologics Evaluation and Research, Messenger RNA, Pharmaceutical development, Moderna, Vaccine research and review, Vaccine technology, FDA, CMC information request, Regulatory submission, Lipid nanoparticle, Regulatory affairs, SARS-CoV-2",False,False,False,False
125752_S10_M5_CRF_mrna-1273-p301-us3372005.pdf,mRNA-1273-P301 Completion Guidelines,09 Jun 2021,https://drive.google.com/file/d/1IMeUBAlQteQ-1C2c51j7-v6f8oFiDmZN/view?usp=drivesdk,md-production-120224,PDF,2706,M5,Clinical Trial Form,KC Joubran,"mRNA-1273, Demographics, Visit Date, Sex, Palm Beach Research Center, Race, Clinical Trial, Age, Participant ID, Ethnicity, Protocol Amendment, Informed Consent, CBER, Participant Enrollment, FDA, COVID-19, Screening Form",False,False,False,False
125752_S10_M5_CRF_mrna-1273-p301-us3372059.pdf,mRNA-1273-P301 Participant Creation Data,09 Jun 2021,https://drive.google.com/file/d/1tlJYizgHWjpq8VQSdPyAu1cc-dSLZVsW/view?usp=drivesdk,md-production-120224,PDF,3598,M5,Clinical Trial Form,KC Joubran,"mRNA-1273, visit date, Palm Beach Research Center, COVID-19 vaccine, ethnicity, race, participant data, date of birth, enrollment, CBER, age, demographics, FDA, clinical trial, participant ID, screening, sex, informed consent",False,False,False,False
125752_S10_M5_CRF_mrna-1273-p301-us3372092.pdf,mRNA-1273-P301 Participant Creation Data,11 Aug 2021,https://drive.google.com/file/d/1v42W74euWcMXBsCyVdFjuOQZpvpmYx5G/view?usp=drivesdk,md-production-120224,PDF,1847,M5,Clinical trial form,KC Joubran,"mRNA-1273, ethnicity, race, participant data, date of birth, screen fail, protocol amendment, enrollment, CBER, age, FDA, demographics, clinical trial, participant ID, screening form, sex, informed consent",False,False,False,False
125752_S10_M5_CRF_mrna-1273-p301-us3372060.pdf,mRNA-1273-P301 Completion Guidelines,09 Jun 2021,https://drive.google.com/file/d/172gOqyJyaVAICpBxIh3aIrajx58FrHWE/view?usp=drivesdk,md-production-120224,PDF,2334,M5,Clinical Trial Form,KC Joubran,"mRNA-1273, Demographics, Visit Date, Race, Palm Beach Research Center, Sex, Clinical Trial, Ethnicity, Participant ID, Age, Screen Fail, Participant Creation, Informed Consent, CBER, Participant Enrollment, FDA, COVID-19, Screening Form",False,False,False,False
125752_S10_M5_CRF_mrna-1273-p301-us3372089.pdf,mRNA-1273-P301 Participant Creation Data,09 Jun 2021,https://drive.google.com/file/d/1pd3ejX622h5uUxC518q6mqjUwnrcnlR4/view?usp=drivesdk,md-production-120224,PDF,2913,M5,Clinical Trial Form,KC Joubran,"mRNA-1273, Demographics, Visit Date, Race, Palm Beach Research Center, Sex, Clinical Trial, Ethnicity, Participant ID, Age, Screen Fail, Informed Consent, CBER, Participant Enrollment, FDA, COVID-19, Enrollment, Screening Form",False,False,False,False
125752_S10_M5_CRF_mrna-1273-p301-us3372184.pdf,mRNA-1273-P301 Participant Creation Data,2021-06-09,https://drive.google.com/file/d/1DwerAW4Ansa9n1MNJjPqi6dzHztPqLYr/view?usp=drivesdk,md-production-120224,PDF,2878,M5,Clinical trial data,KC Joubran,"mRNA-1273, visit date, Palm Beach Research Center, race, ethnicity, participant data, date of birth, screen fail, protocol amendment, enrollment, CBER, FDA, demographics, clinical trial, participant ID, screening, informed consent, COVID-19",False,False,False,False
125752_S10_M5_CRF_mrna-1273-p301-us3372137.pdf,mRNA-1273-P301 Completion Guidelines,09 Jun 2021,https://drive.google.com/file/d/1KrhlXY-w3JvAlDtrQB3C8a0If2MFzedY/view?usp=drivesdk,md-production-120224,PDF,2703,M5,Clinical Trial Form,KC Joubran,"mRNA-1273, Demographics, Visit Date, Sex, Palm Beach Research Center, Race, Clinical Trial, Age, Participant ID, Ethnicity, Screen Fail, Participant Creation, Informed Consent, CBER, Participant Enrollment, FDA, COVID-19, Screening Form",False,False,False,False
125752_S10_M5_CRF_mrna-1273-p301-us3372110.pdf,mRNA-1273-P301 Completion Guidelines,11 Aug 2021,https://drive.google.com/file/d/1hcatWbTe65LF8m6Eo26cUJChUtihdjo6/view?usp=drivesdk,md-production-120224,PDF,1807,M5,Clinical Trial Form,KC Joubran,"mRNA-1273, visit date, Palm Beach Research Center, vaccine, US3372110, screen fail, protocol amendment, enrollment, CBER, demographics, FDA, clinical trial, participant creation, participant ID, screening form, informed consent, COVID-19",False,False,False,False
125752_S10_M5_CRF_mrna-1273-p301-us3372209.pdf,mRNA-1273-P301 Participant Creation Data,2021-06-09,https://drive.google.com/file/d/1JnbPRZmUAGg0_nVeKLX72v0hA3-_vwK8/view?usp=drivesdk,md-production-120224,PDF,2289,M5,Clinical trial data,KC Joubran,"mRNA-1273, Palm Beach Research Center, data generation, COVID-19 vaccine, participant data, screen fail, protocol amendment, enrollment, CBER, FDA, demographics, clinical trial, participant ID, production release, screening form, participant creation, informed consent",False,False,False,False
125752_S10_M5_CRF_mrna-1273-p301-us3372228.pdf,mRNA-1273-P301 Completion Guidelines,09 Jun 2021,https://drive.google.com/file/d/1Z43Clodc4XKcBBS-pW5SVRZVH8fnGvCo/view?usp=drivesdk,md-production-120224,PDF,1760,M5,Clinical Trial Form,KC Joubran,"mRNA-1273, Demographics, Visit Date, Palm Beach Research Center, Completion Guidelines, Clinical Trial, EAB, Vaccine Development, PRODUCTION RELEASE, Informed Consent, CBER, Participant Enrollment, FDA, Moderna, Participant ID US3372228, COVID-19, Screening Form",False,False,False,False
125752_S10_M5_CRF_mrna-1273-p301-us3372274.pdf,mRNA-1273-P301 Participant Creation Data,09 Jun 2021,https://drive.google.com/file/d/19VZnh3zG6q96Un9d_jeIXtRT1HmHlVqh/view?usp=drivesdk,md-production-120224,PDF,2564,M5,Clinical Trial Form,KC Joubran,"mRNA-1273, Palm Beach Research Center, participant data, vaccine, screen fail, protocol amendment, enrollment, CBER, Moderna, FDA, demographics, clinical trial, participant ID, production release, screening form, informed consent, COVID-19",False,False,False,False
125752_S10_M5_CRF_mrna-1273-p301-us3372284.pdf,mRNA-1273-P301 Participant Creation Data,09 Jun 2021,https://drive.google.com/file/d/1R8rQFQeym5eJeISy_pvtBRRuZ3A_VFiR/view?usp=drivesdk,md-production-120224,PDF,3007,M5,Clinical Trial Form,KC Joubran,"mRNA-1273, Demographics, Protocol Amendment, Screen Fail, Palm Beach Research Center, Clinical Trial, Participant ID, Moderna, Informed Consent, CBER, Participant Data, FDA, Vaccine, PRODUCTION RELEASE, COVID-19, Enrollment, Screening Form",False,False,False,False
125752_S10_M5_CRF_mrna-1273-p301-us3372229.pdf,mRNA-1273-P301 Participant Creation Data,2021-08-11,https://drive.google.com/file/d/1EeEIylcOoDlAWi4lP-GYXWrYMc3p2cAc/view?usp=drivesdk,md-production-120224,PDF,1891,M5,Clinical trial data,KC Joubran,"mRNA-1273, COVID-19 vaccine, ethnicity, race, participant data, date of birth, screen fail, protocol amendment, enrollment, CBER, age, FDA, demographics, clinical trial, participant ID, screening form, sex, informed consent",False,False,False,False
125752_S10_M5_CRF_mrna-1273-p301-us3372348.pdf,mRNA-1273-P301 Participant Creation Data,09 Jun 2021,https://drive.google.com/file/d/1yEumW9oNVriJ8RBq6YUPvxebpxVcGT0r/view?usp=drivesdk,md-production-120224,PDF,1982,M5,Clinical Trial Form,KC Joubran,"mRNA-1273, visit date, Palm Beach Research Center, participant data, vaccine, data signing, protocol amendment, enrollment, CBER, FDA, demographics, clinical trial, participant ID, production release, screening, informed consent, COVID-19",False,False,False,False
125752_S10_M5_CRF_mrna-1273-p301-us3482023.pdf,mRNA-1273-P301 Participant Creation Data,09 Jun 2021,https://drive.google.com/file/d/1TzGqGHaQfpvcFXQZ_4QVCD244khDFEC3/view?usp=drivesdk,md-production-120224,PDF,2080,M5,Clinical trial data,KC Joubran,"mRNA-1273, visit date, Emory Vaccine Center, Hope Clinic, data generation, participant data, screen fail, protocol amendment, enrollment, CBER, FDA, demographics, clinical trial, participant ID, production release, screening form, informed consent",False,False,False,False
125752_S10_M5_CRF_mrna-1273-p301-us3372394.pdf,mRNA-1273-P301 Participant Creation Data,2021-06-09,https://drive.google.com/file/d/1GsMqtYuZoCGIxPeRHcjVt41fz6lHtoXL/view?usp=drivesdk,md-production-120224,PDF,2549,M5,Clinical trial data,KC Joubran,"mRNA-1273, visit date, Palm Beach Research Center, race, ethnicity, participant data, screen fail, protocol amendment, enrollment, CBER, FDA, demographics, clinical trial, participant ID, screening, informed consent, COVID-19",False,False,False,False
125752_S10_M5_CRF_mrna-1273-p301-us3482005.pdf,mRNA-1273-P301 Participant Creation Data,09 Jun 2021,https://drive.google.com/file/d/1sJFRQZm4dl0gaXXuEdsfI9LjOgYL_pKh/view?usp=drivesdk,md-production-120224,PDF,3301,M5,Clinical Trial Form,KC Joubran,"mRNA-1273, Demographics, Protocol Amendment, Participant Creation, Screen Fail, Emory Vaccine Center, Clinical Trial, Hope Clinic, Participant ID, Visit Date, Race, Informed Consent, CBER, FDA, Ethnicity, Enrollment, Screening Form",False,False,False,False
125752_S10_M5_CRF_mrna-1273-p301-us3482094.pdf,mRNA-1273-P301 Participant Creation Data,09 Jun 2021,https://drive.google.com/file/d/1s5codpMalvULtCftXq3nHTtukQH_kYzL/view?usp=drivesdk,md-production-120224,PDF,3781,M5,Clinical trial data,KC Joubran,"mRNA-1273, Emory Vaccine Center, data generation, COVID-19 vaccine, ethnicity, participant data, date of birth, enrollment, CBER, age, FDA, demographics, clinical trial, participant ID, production release, screening form, sex, informed consent",False,False,False,False
125752_S10_M5_CRF_mrna-1273-p301-us3482064.pdf,mRNA-1273-P301 Participant Creation and Screening Forms,2021-08-11,https://drive.google.com/file/d/1UZU0NBxGfd-_UFu4jTi8QqDSIeHeYrFi/view?usp=drivesdk,md-production-120224,PDF,1809,M5,Clinical trial forms,,"mRNA-1273, protocol amendments, Emory Vaccine Center, Hope Clinic, COVID-19 vaccine, data generation, screening forms, screen fail, electronic data capture, CBER, FDA, participant ID, clinical trial, demographics, production release, participant enrollment, informed consent",False,False,False,False
125752_S10_M5_CRF_mrna-1273-p301-us3482145.pdf,mRNA-1273-P301 Participant Creation Data,2021-06-09,https://drive.google.com/file/d/121YhUqL5MGppnY3TQaSWfZfGS5eJ0raG/view?usp=drivesdk,md-production-120224,PDF,3016,M5,clinical trial data,KC Joubran,"mRNA-1273, visit date, Emory Vaccine Center, Hope Clinic, race, ethnicity, participant data, screen fail, protocol amendment, enrollment, CBER, FDA, demographics, clinical trial, participant ID, screening form, informed consent",False,False,False,False
125752_S10_M5_CRF_mrna-1273-p301-us3482240.pdf,mRNA-1273-P301 Participant Creation Data,09 Jun 2021,https://drive.google.com/file/d/1PKuV5g8g7fPerh0b_g6UPq-nUThQh6UQ/view?usp=drivesdk,md-production-120224,PDF,2288,M5,Clinical Trial Form,KC Joubran,"Visit Date, Emory Vaccine Center, Clinic Visit, mRNA-1273, Enrollment, Sex, Screen Fail, FDA, Ethnicity, Screening Form, Home Visit, Demographics, Protocol Amendment, Participant Creation, Race, Clinical Trial, Age, Participant ID, Informed Consent, CBER",False,False,False,False
125752_S10_M5_CRF_mrna-1273-p301-us3482267.pdf,mRNA-1273-P301 Participant Creation Data,09 Jun 2021,https://drive.google.com/file/d/1tmtn6IFK2w5wDFK5WS65kjxGfi_2zXo_/view?usp=drivesdk,md-production-120224,PDF,3140,M5,Clinical trial data,KC Joubran,"mRNA-1273, visit date, Emory Vaccine Center, Hope Clinic, participant data, screen fail, protocol amendment, enrollment, CBER, FDA, demographics, clinical trial, participant ID, production release, screening form, vaccine development, informed consent",False,False,False,False
125752_S10_M5_CRF_mrna-1273-p301-us3482284.pdf,mRNA-1273-P301 Participant Creation Data,09 Jun 2021,https://drive.google.com/file/d/1R7ghuutPxUXKws1LMDwTdhWBnQpzrj3O/view?usp=drivesdk,md-production-120224,PDF,3802,M5,Clinical Trial Form,KC Joubran,"mRNA-1273, COVID-19 vaccine, race, ethnicity, participant data, screen fail, protocol amendment, enrollment, CBER, age, demographics, FDA, clinical trial, participant ID, sex, screening form, Synexus Clinical Research, informed consent",False,False,False,False
125752_S10_M5_CRF_mrna-1273-p301-us3482286.pdf,mRNA-1273-P301 Participant Creation Data,2021-06-09,https://drive.google.com/file/d/1AtwKqpb0kWVX0DaknMM69E2pO40sXPZ2/view?usp=drivesdk,md-production-120224,PDF,2467,M5,Clinical trial data,KC Joubran,"mRNA-1273, protocol amendments, visit data, Emory Vaccine Center, Hope Clinic, COVID-19 vaccine, data generation, participant data, enrollment, CBER, FDA, demographics, clinical trial, participant ID, production release, screening, informed consent",False,False,False,False
125752_S10_M5_CRF_mrna-1273-p301-us3482302.pdf,mRNA-1273-P301 Participant Creation Data,09 Jun 2021,https://drive.google.com/file/d/16oRojck1Cwo_zjuM7-fBHSEt5v-9-zcn/view?usp=drivesdk,md-production-120224,PDF,3356,M5,Clinical trial data,KC Joubran,"visit date, Emory Vaccine Center, race, date of birth, protocol amendment, demographics, mRNA-1273, enrollment, sex, informed consent, home or clinic, age, FDA, participant ID, clinical trial, screening form, ethnicity, participant data, screen fail, CBER",False,False,False,False
125752_S10_M5_CRF_mrna-1273-p301-us3492061.pdf,mRNA-1273-P301 Participant Creation Data,11 Aug 2021,https://drive.google.com/file/d/1-QglvD4IhEz0PGzB2Jae6I-BrhCU7EBc/view?usp=drivesdk,md-production-120224,PDF,1734,M5,Clinical Trial Form,KC Joubran,"mRNA-1273, Demographics, Clinical Trial, Vaccine Development, Participant ID, Randomization, Project WISH, Moderna, Informed Consent, CBER, Participant Enrollment, FDA, Eligibility Criteria, Adverse Events, Blinding, COVID-19, Screening Form",False,False,False,False
125752_S10_M5_CRF_mrna-1273-p301-us3492064.pdf,mRNA-1273-P301 Completion Guidelines,2021-06-10,https://drive.google.com/file/d/1uo1ElnHYh_7zbt2Yyf8dZrKCEiqzB5TQ/view?usp=drivesdk,md-production-120224,PDF,2802,M5,clinical trial form,KC Joubran,"mRNA-1273, visit date, race, ethnicity, CBER, age, demographics, FDA, clinical trial, production release, participant ID, screening, participant enrollment, WISH CRS, sex, informed consent, COVID-19",False,False,False,False
125752_S10_M5_CRF_mrna-1273-p301-us3492078.pdf,mRNA-1273-P301 Completion Guidelines,10 Jun 2021,https://drive.google.com/file/d/1NezveZjZEfNxM2wTf0mnci1ZvvA0exTR/view?usp=drivesdk,md-production-120224,PDF,2271,M5,Clinical Trial Form,KC Joubran,"mRNA-1273, Demographics, US3492078, Participant Creation, Clinical Trial, Participant ID, Visit Data, Phase 3, Moderna, Informed Consent, CBER, Participant Enrollment, FDA, Vaccine, PRODUCTION RELEASE, COVID-19, Screening Form",False,False,False,False
125752_S10_M5_CRF_mrna-1273-p301-us3492085.pdf,mRNA-1273-P301 Completion Guidelines,10 Jun 2021,https://drive.google.com/file/d/15TmTN9y5ZYwDmOTV9uR57mXDfmF9TvoU/view?usp=drivesdk,md-production-120224,PDF,3296,M5,Clinical Trial Form,KC Joubran,"mRNA-1273, Demographics, Visit Date, Race, Clinical Trial, Vaccine Development, Participant ID, Ethnicity, Project WISH, CRS, Moderna, Informed Consent, CBER, Participant Enrollment, FDA, COVID-19, Screening Form",False,False,False,False
125752_S10_M5_CRF_mrna-1273-p301-us3492117.pdf,mRNA-1273-P301 Participant Creation Data,2021-02-15,https://drive.google.com/file/d/1hSx7PucpzV91Wl8SPPAmSeWFu1ZbTUe0/view?usp=drivesdk,md-production-120224,PDF,2318,M5,Clinical trial data,KC Joubran,"mRNA-1273, visit date, COVID-19 vaccine, race, ethnicity, participant data, screen fail, Moderna, enrollment, CBER, protocol amendment, FDA, demographics, clinical trial, participant ID, screening form, informed consent",False,False,False,False
125752_S10_M5_CRF_mrna-1273-p301-us3492107.pdf,mRNA-1273-P301 Completion Guidelines,10 Jun 2021,https://drive.google.com/file/d/1x4LhM1OXh81aEvyaB9RbgxcB0AGmQ302/view?usp=drivesdk,md-production-120224,PDF,2330,M5,Clinical Trial Form,KC Joubran,"mRNA-1273, Demographics, Visit Date, Sex, Race, Clinical Trial, Vaccine Development, Participant ID, Age, Ethnicity, Moderna, Informed Consent, CBER, Participant Enrollment, FDA, COVID-19, Screening Form",False,False,False,False
125752_S10_M5_CRF_mrna-1273-p301-us3492228.pdf,mRNA-1273-P301 Completion Guidelines,11 Aug 2021,https://drive.google.com/file/d/1JYO_eJuIxXL4PNmOAl88uW1PwlsRuKAN/view?usp=drivesdk,md-production-120224,PDF,1964,M5,Clinical Research Form,KC Joubran,"mRNA-1273, visit data, CRS, data signing, WISH, protocol amendment, screen fail, CBER, demographics, FDA, clinical trial, production release, participant creation, screening, participant enrollment, informed consent, COVID-19",False,False,False,False
125752_S10_M5_CRF_mrna-1273-p301-us3492237.pdf,mRNA-1273-P301 Completion Guidelines,2021-08-11,https://drive.google.com/file/d/1f_yzEpeJ0sYNfgS3Z0Pt1qEhnJG9q6Cu/view?usp=drivesdk,md-production-120224,PDF,2565,M5,clinical trial form,KC Joubran,"mRNA-1273, US3492237, visit date, inclusion/exclusion, date of birth, screen fail, enrollment, CBER, demographics, FDA, clinical trial, participant creation, production release, screening form, WISH CRS, participant ID, informed consent",False,False,False,False
125752_S10_M5_CRF_mrna-1273-p301-us3492178.pdf,mRNA-1273-P301 Completion Guidelines,10 Jun 2021,https://drive.google.com/file/d/1eBstIucWG2zmO35e6yRxZhwTHnaYIQhm/view?usp=drivesdk,md-production-120224,PDF,2246,M5,Clinical Trial Form,KC Joubran,"mRNA-1273, Demographics, Visit Date, Race, Sex, Screen Fail, Clinical Trial, Ethnicity, Participant ID, Age, Participant Creation, Informed Consent, CBER, Participant Enrollment, FDA, WISH CRS, COVID-19, Screening Form",False,False,False,False
125752_S10_M5_CRF_mrna-1273-p301-us3492243.pdf,mRNA-1273-P301 Completion Guidelines,10 Jun 2021,https://drive.google.com/file/d/1zjAZ_tRrnbBQzVDgdYt_Zxy89q_sUy5N/view?usp=drivesdk,md-production-120224,PDF,2522,M5,Clinical Trial Form,KC Joubran,"mRNA-1273, Demographics, Visit Date, Race, Sex, Protocol Amendment, Clinical Trial, Ethnicity, Participant ID, Age, Screen Fail, Informed Consent, CBER, Participant Enrollment, FDA, WISH CRS, COVID-19, Screening Form",False,False,False,False
125752_S10_M5_CRF_mrna-1273-p301-us3492242.pdf,mRNA-1273-P301 Completion Guidelines,2021-08-11,https://drive.google.com/file/d/11G-g4t-4Rqo0D_vmlkotbHZ81ZUy3ofA/view?usp=drivesdk,md-production-120224,PDF,2502,M5,Clinical trial form,KC Joubran,"mRNA-1273, visit date, inclusion/exclusion, race, screen fail, enrollment, CBER, demographics, FDA, clinical trial, participant creation, production release, screening form, WISH CRS, informed consent, participant ID, US3492242",False,False,False,False
125752_S10_M5_CRF_mrna-1273-p301-us3492273.pdf,mRNA-1273-P301 Participant Creation Data,15 Feb 2021,https://drive.google.com/file/d/1lJsk8PANxRsjG-9_YICleW-M3okAvoRU/view?usp=drivesdk,md-production-120224,PDF,2591,M5,Clinical trial data,KC Joubran,"mRNA-1273, visit date, clinic visit, COVID-19 vaccine, data generation, participant data, screen fail, protocol amendment, enrollment, CBER, home visit, FDA, demographics, clinical trial, participant ID, screening form, informed consent",False,False,False,False
125752_S10_M5_CRF_mrna-1273-p301-us3492281.pdf,mRNA-1273-P301 Participant Creation Data,10 Jun 2021,https://drive.google.com/file/d/13Cj3d6A2PAlgJC6gDMyFCo92RWDrmHW0/view?usp=drivesdk,md-production-120224,PDF,2196,M5,Clinical Trial Form,KC Joubran,"Visit Date, Completion Guidelines, Participant Enrollment, COVID-19, mRNA-1273, Vaccine Development, Sex, Project WISH, FDA, Ethnicity, Screening Form, Demographics, Race, Clinical Trial, Age, Participant ID, Moderna, Informed Consent, CBER",False,False,False,False
125752_S10_M5_CRF_mrna-1273-p301-us3492299.pdf,mRNA-1273-P301 Participant Creation Data,11 Aug 2021,https://drive.google.com/file/d/17gNap8hE5HD4Kl2LERpU9k1WLYg3lLj6/view?usp=drivesdk,md-production-120224,PDF,1842,M5,Clinical Trial Form,KC Joubran,"mRNA-1273, Demographics, Visit Date, Race, Clinical Trial, Ethnicity, Participant ID, Phase 3, Moderna, Informed Consent, CBER, Participant Enrollment, FDA, Vaccine, WISH CRS, COVID-19, US3492299, Screening Form",False,False,False,False
125752_S10_M5_CRF_mrna-1273-p301-us3572027.pdf,mRNA-1273-P301 Participant Creation Data,2021-08-11,https://drive.google.com/file/d/1-hgA1Ozcp7jiwkpqUPcU8GlHvXDn11HK/view?usp=drivesdk,md-production-120224,PDF,1743,M5,Clinical trial data,KC Joubran,"mRNA-1273, visit date, COVID-19 vaccine, participant data, screen fail, Moderna, enrollment, CBER, protocol amendment, FDA, demographics, clinical trial, participant ID, Laguna Clinical Research Associates, screening form, age, sex, informed consent",False,False,False,False
125752_S10_M5_CRF_mrna-1273-p301-us3572076.pdf,mRNA-1273-P301 Participant Creation Data,2021-06-10,https://drive.google.com/file/d/1oxq-pdzA9y_Q_uhgttzzs1yQbaDFJ8a5/view?usp=drivesdk,md-production-120224,PDF,2301,M5,Clinical Research Form,KC Joubran,"mRNA-1273, FOIA, participant data, vaccine, screen fail, Moderna, enrollment, CBER, protocol amendment, demographics, FDA, clinical trial, participant ID, Laguna Clinical Research Associates, screening form, informed consent, COVID-19",False,False,False,False
125752_S10_M5_CRF_mrna-1273-p301-us3572086.pdf,mRNA-1273-P301 Participant Creation Data,2021-06-10,https://drive.google.com/file/d/1WCl9X9OxRHAsp9BV7PAgb19DUoUtgUSZ/view?usp=drivesdk,md-production-120224,PDF,2168,M5,Clinical Research Form,KC Joubran,"mRNA-1273, visit date, COVID-19 vaccine, ethnicity, race, participant data, Moderna, enrollment, age, FDA, demographics, clinical trial, participant ID, Laguna Clinical Research Associates, screening form, sex, informed consent, clinical research",False,False,False,False
125752_S10_M5_CRF_mrna-1273-p301-us3572116.pdf,mRNA-1273-P301 Participant Creation Data,2021-06-10,https://drive.google.com/file/d/1IZMqWlL3zI9GDsNX9rDpXUaF1tY05E1V/view?usp=drivesdk,md-production-120224,PDF,1858,M5,Clinical Research Form,KC Joubran,"mRNA-1273, US3572116, P301, participant data, vaccine, screen fail, Moderna, enrollment, CBER, protocol amendment, demographics, FDA, clinical trial, Laguna Clinical Research Associates, screening form, informed consent, COVID-19",False,False,False,False
125752_S10_M5_CRF_mrna-1273-p301-us3572125.pdf,mRNA-1273-P301 Participant Creation Data,2021-06-10,https://drive.google.com/file/d/14dXRRO3SNae_o1IoskPhP9tbG2cXRZaw/view?usp=drivesdk,md-production-120224,PDF,2733,M5,Clinical trial record,KC Joubran,"mRNA-1273, P301, COVID-19 vaccine, US3572125, participant data, Moderna, enrollment, CBER, FDA, demographics, clinical trial, participant ID, production release, screening, Laguna Clinical Research Associates, informed consent, FDA-CBER-2022-1614",False,False,False,False
125752_S10_M5_CRF_mrna-1273-p301-us3572120.pdf,mRNA-1273-P301 Participant Creation Data,2021-06-10,https://drive.google.com/file/d/1dB0wVYrWZr60QlPYrWI3R0wy-INibz0V/view?usp=drivesdk,md-production-120224,PDF,1925,M5,Clinical research form,KC Joubran,"mRNA-1273, participant data, vaccine, screen fail, Moderna, enrollment, CBER, protocol amendment, demographics, FDA, clinical trial, participant ID, Laguna Clinical Research Associates, screening form, production release, informed consent, COVID-19",False,False,False,False
125752_S10_M5_CRF_mrna-1273-p301-us3572181.pdf,mRNA-1273-P301 Participant Creation Data,2021-06-10,https://drive.google.com/file/d/1hFiHKR0uZ3BDU7x55QD1icGKkbqe3diT/view?usp=drivesdk,md-production-120224,PDF,2179,M5,Clinical Research Form,KC Joubran,"mRNA-1273, medical data, FOIA, COVID-19 vaccine, participant data, Moderna, enrollment, CBER, FDA, demographics, clinical trial, participant ID, production release, screening form, Laguna Clinical Research Associates, informed consent, clinical research",False,False,False,False
125752_S10_M5_CRF_mrna-1273-p301-us3572170.pdf,mRNA-1273-P301 Participant Creation Data,2021-06-10,https://drive.google.com/file/d/1mVU_2Oyx24j-vfy5E3SRouBpxMp-HFL9/view?usp=drivesdk,md-production-120224,PDF,2180,M5,Clinical Research Form,KC Joubran,"mRNA-1273, visit date, race, ethnicity, vaccine, Moderna, CBER, age, demographics, FDA, clinical trial, participant ID, Laguna Clinical Research Associates, screening form, participant enrollment, sex, informed consent, COVID-19",False,False,False,False
125752_S10_M5_CRF_mrna-1273-p301-us3572134.pdf,mRNA-1273-P301 Participant Creation Data,2021-06-10,https://drive.google.com/file/d/1UAiBlfpafzyA1VIx8s0_wEGsFAhAfDjV/view?usp=drivesdk,md-production-120224,PDF,2945,M5,Clinical trial data,KC Joubran,"mRNA-1273, visit date, COVID-19 vaccine, race, ethnicity, participant data, screen fail, Moderna, enrollment, CBER, protocol amendment, FDA, demographics, clinical trial, participant ID, Laguna Clinical Research Associates, screening form, informed consent",False,False,False,False
125752_S10_M5_CRF_mrna-1273-p301-us3572199.pdf,mRNA-1273-P301 Participant Creation Data,2021-06-10,https://drive.google.com/file/d/1yb4kMb7E-I4FxQFuSFoZBZtJcrxbGRMB/view?usp=drivesdk,md-production-120224,PDF,2699,M5,Clinical Research Form,KC Joubran,"mRNA-1273, visit data, CRF, participant data, vaccine, Moderna, enrollment, CBER, clinical research, FDA, demographics, clinical trial, participant ID, PRODUCTION RELEASE, screening, informed consent, COVID-19",False,False,False,False
125752_S10_M5_CRF_mrna-1273-p301-us3572251.pdf,mRNA-1273-P301 Participant Creation Data,10 Jun 2021,https://drive.google.com/file/d/1Rg73bTva8V9fdXCvR2tYUE-WSU9Q7rpw/view?usp=drivesdk,md-production-120224,PDF,2128,M5,Clinical Research Form,KC Joubran,"mRNA-1273, visit date, race, participant data, vaccine, Moderna, enrollment, CBER, demographics, FDA, clinical trial, production release, Laguna Clinical Research Associates, screening form, participant ID, informed consent, COVID-19",False,False,False,False
125752_S10_M5_CRF_mrna-1273-p301-us3622012.pdf,mRNA-1273-P301 Completion Guidelines,2020-08-11,https://drive.google.com/file/d/16nwQ86qF9MTqlroI97bm9SM8RBzHtb8V/view?usp=drivesdk,md-production-120224,PDF,693,M5,clinical trial form,KC Joubran,"mRNA-1273, visit date, race, ethnicity, vaccine, protocol amendment, CBER, demographics, FDA, clinical trial, participant ID, screening, participant enrollment, University of Miami, informed consent, SARS-CoV-2, COVID-19",False,False,False,False
125752_S10_M5_CRF_mrna-1273-p301-us3572324.pdf,mRNA-1273-P301 Participant Creation Data,2021-08-11,https://drive.google.com/file/d/1XWr_dbxmJNxxiE2IW2ktMQFigUxP5jqW/view?usp=drivesdk,md-production-120224,PDF,2743,M5,Clinical Research Form,KC Joubran,"mRNA-1273, visit date, COVID-19 vaccine, ethnicity, race, participant data, Moderna, enrollment, age, FDA, demographics, clinical trial, participant ID, Laguna Clinical Research Associates, screening form, sex, informed consent, clinical research",False,False,False,False
125752_S10_M5_CRF_mrna-1273-p301-us3572330.pdf,mRNA-1273-P301 Participant Creation Data,2021-06-10,https://drive.google.com/file/d/1ByeGkKhiiZgoJk-45i7tdV5QHGrjUQOk/view?usp=drivesdk,md-production-120224,PDF,1697,M5,Clinical trial data,KC Joubran,"mRNA-1273, data generation, COVID-19 vaccine, participant data, Moderna, enrollment, CBER, time stamp, FDA, demographics, clinical trial, participant ID, Laguna Clinical Research Associates, screening, production release, protocol amendment, informed consent",False,False,False,False
125752_S10_M5_CRF_mrna-1273-p301-us3622116.pdf,mRNA-1273-P301 Completion Guidelines,10 Jun 2021,https://drive.google.com/file/d/1RYMRJJy3hWo3UIkc52SOl6CRc5NWoUcm/view?usp=drivesdk,md-production-120224,PDF,2596,M5,Clinical trial form,KC Joubran,"mRNA-1273, visit date, COVID-19 vaccine, race, ethnicity, Moderna, enrollment, CBER, age, demographics, FDA, clinical trial, participant creation, participant ID, screening form, University of Miami, informed consent",False,False,False,False
125752_S10_M5_CRF_mrna-1273-p301-us3622142.pdf,mRNA-1273-P301 Completion Guidelines,10 Jun 2021,https://drive.google.com/file/d/1xGY5dn5vccFPRVWcbMwWUOxKDKO6cG6f/view?usp=drivesdk,md-production-120224,PDF,3868,M5,Clinical Trial Form,KC Joubran,"mRNA-1273, visit date, race, ethnicity, enrollment, CBER, age, demographics, FDA, clinical trial, participant creation, production release, screening form, participant ID, University of Miami, informed consent, COVID-19",False,False,False,False
125752_S10_M5_CRF_mrna-1273-p301-us3622032.pdf,mRNA-1273-P301 Completion Guidelines,2020-08-22,https://drive.google.com/file/d/1uE5EcRpEL0lJ8ztlAem6XXe72vCF6L-z/view?usp=drivesdk,md-production-120224,PDF,1944,M5,clinical trial form,KC Joubran,"mRNA-1273, visit date, COVID-19 vaccine, race, ethnicity, participant data, screen fail, Moderna, enrollment, CBER, demographics, FDA, clinical trial, participant ID, screening form, University of Miami, informed consent",False,False,False,False
125752_S10_M5_CRF_mrna-1273-p301-us3622169.pdf,mRNA-1273-P301 Completion Guidelines,10 Jun 2021,https://drive.google.com/file/d/1ISJGPRVg9QiZV0A1GjEoeSxj6laU82lj/view?usp=drivesdk,md-production-120224,PDF,2764,M5,Clinical Trial Form,KC Joubran,"mRNA-1273, visit date, race, ethnicity, PRODUCTION RELEASE, CBER, age, demographics, FDA, clinical trial, participant ID, sex, screening form, participant enrollment, University of Miami, informed consent, COVID-19",False,False,False,False
125752_S10_M5_CRF_mrna-1273-p301-us3622160.pdf,mRNA-1273-P301 Completion Guidelines,10 Jun 2021,https://drive.google.com/file/d/1LpG6s4GKZFVGtMzTyyU53DR9StI-Z6E8/view?usp=drivesdk,md-production-120224,PDF,2193,M5,Clinical Trial Form,KC Joubran,"mRNA-1273, Demographics, Visit Date, Race, Sex, Screen Fail, Clinical Trial, Ethnicity, Participant ID, Age, Informed Consent, CBER, Participant Enrollment, FDA, Vaccine, University of Miami, COVID-19, Screening Form",False,False,False,False
125752_S10_M5_CRF_mrna-1273-p301-us3622197.pdf,mRNA-1273-P301 Completion Guidelines,10 Jun 2021,https://drive.google.com/file/d/1Penv8-lh2VYEUjrahGN1y-gmwnvvOnAW/view?usp=drivesdk,md-production-120224,PDF,2122,M5,Clinical trial form,KC Joubran,"mRNA-1273, visit date, race, ethnicity, vaccine, PRODUCTION RELEASE, enrollment, CBER, demographics, FDA, clinical trial, participant creation, participant ID, screening form, University of Miami, informed consent, COVID-19",False,False,False,False
125752_S10_M5_CRF_mrna-1273-p301-us3622206.pdf,mRNA-1273-P301 Completion Guidelines,26 Sep 2020,https://drive.google.com/file/d/1A464kXs_jfqt3V4-CR2rq_dTXwslVYKR/view?usp=drivesdk,md-production-120224,PDF,2228,M5,Clinical Trial Form,KC Joubran,"mRNA-1273, visit data, race, ethnicity, PRODUCTION RELEASE, CBER, age, demographics, FDA, clinical trial, participant creation, sex, screening form, participant enrollment, University of Miami, informed consent, COVID-19",False,False,False,False
125752_S10_M5_CRF_mrna-1273-p301-us3622211.pdf,mRNA-1273-P301 Completion Guidelines,26 Sep 2020,https://drive.google.com/file/d/178CYj7dFHgYpLhU6Ee-pg-i3ylcXBP9r/view?usp=drivesdk,md-production-120224,PDF,2395,M5,Clinical Trial Form,KC Joubran,"mRNA-1273, visit data, race, ethnicity, CBER, age, demographics, FDA, clinical trial, production release, participant creation, screening form, participant enrollment, sex, University of Miami, informed consent, COVID-19",False,False,False,False
125752_S3_M5_CRF_mrna-1273-p301-us3372059.pdf,mRNA-1273 Phase 3 Clinical Trial Report,2022,https://drive.google.com/file/d/19ivkFHqmhbEs20DJ46tqP32r-rx1zq-o/view?usp=drivesdk,md-production-120224,PDF,2,M5,Clinical Trial Report,,"mRNA-1273, Immunogenicity, Pandemic Response, Efficacy, Public Health, Moderna, Safety, CBER, Vaccine, FDA, Medical Innovation, Adverse Events, Regulatory Submission, Pharmaceutical Research, Clinical Trial Report, Phase 3 Clinical Trial, COVID-19",False,False,False,False
125752_S10_M5_CRF_mrna-1273-p301-us3622282.pdf,mRNA-1273-P301 Completion Guidelines,2020-10-24,https://drive.google.com/file/d/1z-MppjA0vvjmfaqxp0NZ3ArocHqlJQLi/view?usp=drivesdk,md-production-120224,PDF,4817,M5,clinical trial form,KC Joubran,"mRNA-1273, visit date, race, ethnicity, vaccine, enrollment, CBER, demographics, FDA, clinical trial, participant creation, phase 3, screening form, participant ID, University of Miami, informed consent, COVID-19",False,False,False,False
125752_S3_M5_CRF_mrna-1273-p301-us3372089.pdf,mRNA-1273 Phase 3 Clinical Trial Report,2022,https://drive.google.com/file/d/1tiV_0i4OEropGJJiLbIL1UAMpnmiujWl/view?usp=drivesdk,md-production-120224,PDF,2,M5,Clinical Trial Report,,"mRNA-1273, FDA Submission, Immunogenicity, Pandemic Response, Efficacy, Public Health, Moderna, Safety, CBER, Vaccine, Regulatory Approval, Adverse Events, Pharmaceutical Research, Medical Innovation, Phase 3 Clinical Trial, Clinical Trial Data, COVID-19",False,False,False,False
125752_S3_M5_CRF_mrna-1273-p301-us3372005.pdf,mRNA-1273 COVID-19 Vaccine Clinical Trial Report,2022,https://drive.google.com/file/d/1y6J7R8D77X630lyZVSEy8HydC0Jksx8-/view?usp=drivesdk,md-production-120224,PDF,2,M5,Clinical Trial Report,,"mRNA-1273, FDA Submission, Immunogenicity, Pandemic Response, Efficacy, Infectious Disease, Vaccine Development, Clinical Trial, Public Health, Biotechnology, COVID-19 Vaccine, Moderna, Safety, Regulatory Approval, Vaccine Deployment, Vaccine Trials, Pharmaceutical Research",False,False,False,False
125752_S3_M5_CRF_mrna-1273-p301-us3372060.pdf,mRNA-1273 Phase 3 Clinical Trial Report,2022,https://drive.google.com/file/d/1-QiLFGpcRSnARWWqNOTOB9_hxIt9CiR_/view?usp=drivesdk,md-production-120224,PDF,2,M5,Clinical Trial Report,,"mRNA-1273, FDA Submission, Immunogenicity, Pandemic Response, Efficacy, Public Health, Moderna, Safety, CBER, Vaccine, Medical Innovation, Adverse Events, Regulatory Submission, Pharmaceutical Research, Clinical Trial Report, Phase 3 Clinical Trial, COVID-19",False,False,False,False
125752_S3_M5_CRF_mrna-1273-p301-us3372110.pdf,mRNA-1273 Vaccine Clinical Trial Report,2022,https://drive.google.com/file/d/1qfQ6zlVWYom-t5lF8J8E-cJ9gCaAzDs7/view?usp=drivesdk,md-production-120224,PDF,2,M5,Clinical Trial Report,,"mRNA-1273, Clinical Trial, Public Health, Vaccine Development, Vaccine Safety, Regulatory Compliance, Biomedical Science, Moderna, CBER, Vaccine, FDA, Therapeutic Efficacy, Adverse Event Monitoring, Regulatory Submission, Pharmaceutical Research, Immunology, COVID-19",False,False,False,False
125752_S3_M5_CRF_mrna-1273-p301-us3372209.pdf,mRNA-1273 Phase 3 Clinical Trial Report,2022,https://drive.google.com/file/d/1ihEp_UBQIAyTXClymvJnqZvkxIabzLYt/view?usp=drivesdk,md-production-120224,PDF,2,M5,Clinical Trial Report,,"mRNA-1273, Immunogenicity, Pandemic Response, Efficacy, Public Health, Moderna, Safety, CBER, Vaccine, FDA, Medical Innovation, Adverse Events, Regulatory Submission, Pharmaceutical Research, Clinical Trial Report, Phase 3 Clinical Trial, COVID-19",False,False,False,False
125752_S3_M5_CRF_mrna-1273-p301-us3372092.pdf,mRNA-1273 Phase 3 Clinical Trial Report,2022,https://drive.google.com/file/d/1bMHnktIK2fzGC6gF4FUtdwj1cXRilDBt/view?usp=drivesdk,md-production-120224,PDF,2,M5,Clinical Trial Report,,"mRNA-1273, FDA Submission, Immunogenicity, Pandemic Response, Efficacy, Public Health, Moderna, Safety, CBER, Vaccine, Regulatory Approval, Adverse Events, Pharmaceutical Research, Medical Innovation, Phase 3 Clinical Trial, Clinical Trial Data, COVID-19",False,False,False,False
125752_S3_M5_CRF_mrna-1273-p301-us3372228.pdf,mRNA-1273 COVID-19 Vaccine Clinical Trial,2022,https://drive.google.com/file/d/1Wyft93VSkirYLa5J_XjciaZEKMR6EQ-A/view?usp=drivesdk,md-production-120224,PDF,2,M5,Clinical Trial Report,,"mRNA-1273, pandemic response, medical research, pharmaceutical industry, regulatory affairs, COVID-19 vaccine, data analysis, vaccine authorization, vaccine efficacy, public health, CBER, FDA, clinical trial, clinical study, vaccine development, vaccine safety, SARS-CoV-2",False,False,False,False
125752_S3_M5_CRF_mrna-1273-p301-us3372137.pdf,mRNA-1273 Phase 3 Clinical Trial Report,2022,https://drive.google.com/file/d/1ZMcjXnOT5YFHgfwlZWVb8sXD4PO3WpaZ/view?usp=drivesdk,md-production-120224,PDF,2,M5,Clinical Trial Report,,"mRNA-1273, Immunogenicity, Pandemic Response, Efficacy, Public Health, Biomedical Science, Moderna, Safety, CBER, Vaccine, FDA, Adverse Events, Regulatory Submission, Pharmaceutical Research, Clinical Trial Report, Phase 3 Clinical Trial, COVID-19",False,False,False,False
125752_S3_M5_CRF_mrna-1273-p301-us3372229.pdf,mRNA-1273 Phase 3 Clinical Trial Report,2022,https://drive.google.com/file/d/1VkyiuXnB70SMmz1LMwQVO-YHmQNpe9Vu/view?usp=drivesdk,md-production-120224,PDF,2,M5,Clinical Trial Report,,"mRNA-1273, Immunogenicity, Pandemic Response, Efficacy, Public Health, Moderna, Safety, CBER, Vaccine, FDA, Medical Innovation, Adverse Events, Regulatory Submission, Pharmaceutical Research, Clinical Trial Report, Phase 3 Clinical Trial, COVID-19",False,False,False,False
125752_S3_M5_CRF_mrna-1273-p301-us3372184.pdf,mRNA-1273 Phase 3 Clinical Trial Report,2022,https://drive.google.com/file/d/1j6QV4vOZLgYE-W1X73WJVysEzDLcLin6/view?usp=drivesdk,md-production-120224,PDF,2,M5,Clinical Trial Report,,"mRNA-1273, FDA Submission, Immunogenicity, Pandemic Response, Efficacy, Public Health, Moderna, Safety, CBER, Vaccine, Regulatory Approval, Medical Countermeasures, Adverse Events, Pharmaceutical Research, Clinical Trial Report, Phase 3 Clinical Trial, COVID-19",False,False,False,False
125752_S3_M5_CRF_mrna-1273-p301-us3372284.pdf,mRNA-1273 Phase 3 Clinical Trial Report,2022,https://drive.google.com/file/d/1E_AP0SWLoN00G58xOKBvvlL4266Umkf3/view?usp=drivesdk,md-production-120224,PDF,2,M5,Clinical Trial Report,,"mRNA-1273, Immunogenicity, Pandemic Response, Efficacy, Public Health, Biomedical Science, Moderna, Safety, CBER, Vaccine, FDA, Adverse Events, Regulatory Submission, Pharmaceutical Research, Clinical Trial Report, Phase 3 Clinical Trial, COVID-19",False,False,False,False
125752_S3_M5_CRF_mrna-1273-p301-us3372394.pdf,mRNA-1273 Phase 3 Clinical Trial Report,2022,https://drive.google.com/file/d/1x6J8d5uqmEFPdjaIUI7thbvVzPhPGy1v/view?usp=drivesdk,md-production-120224,PDF,2,M5,Clinical Trial Report,,"mRNA-1273, Immunogenicity, Pandemic Response, Efficacy, Public Health, Moderna, Safety, CBER, Vaccine, FDA, Medical Innovation, Adverse Events, Regulatory Submission, Pharmaceutical Research, Clinical Trial Report, Phase 3 Clinical Trial, COVID-19",False,False,False,False
125752_S3_M5_CRF_mrna-1273-p301-us3372348.pdf,mRNA-1273 Phase 3 Clinical Trial Report,2022,https://drive.google.com/file/d/1Walcci84PMuzYTaesZOr1RygYVu4AFfl/view?usp=drivesdk,md-production-120224,PDF,2,M5,Clinical Trial Report,,"mRNA-1273, FDA Submission, Immunogenicity, Pandemic Response, Efficacy, Public Health, Moderna, Safety, CBER, Vaccine, Medical Innovation, Adverse Events, Regulatory Submission, Pharmaceutical Research, Clinical Trial Report, Phase 3 Clinical Trial, COVID-19",False,False,False,False
125752_S3_M5_CRF_mrna-1273-p301-us3372274.pdf,mRNA-1273 Vaccine Clinical Trial Report,2022,https://drive.google.com/file/d/1JyFCGu0iI7_Rm7IBmgcCs8UaaQDfavuM/view?usp=drivesdk,md-production-120224,PDF,2,M5,Clinical Trial Report,,"pandemic response, medical research, pharmaceutical industry, vaccine authorization, immunogenicity, vaccine efficacy, Moderna, adverse events, public health, clinical trial, SARS-CoV-2, FDA submission, regulatory filing, vaccine development, vaccine safety, mRNA vaccine, COVID-19",False,False,False,False
125752_S3_M5_CRF_mrna-1273-p301-us3442031.pdf,mRNA-1273-P301 Participant Creation Data,2021-06-09,https://drive.google.com/file/d/1VRv1CAgiZFO7ICHI9bL_lnwGat6NjNIl/view?usp=drivesdk,md-production-120224,PDF,2436,M5,clinical trial data,KC Joubran,"mRNA-1273, EAB, Benchmark Research, participant data, vaccine, Moderna, enrollment, CBER, PRODUCTION RELEASE, FDA, demographics, clinical trial, US3442031, screening, Fort Worth, informed consent, COVID-19",False,False,False,False
125752_S3_M5_CRF_mrna-1273-p301-us3442024.pdf,mRNA-1273-P301 Participant Creation Data,09 Jun 2021,https://drive.google.com/file/d/1UjoWd9Ue79a4LKGsWNlPsL2vCvV8gE7S/view?usp=drivesdk,md-production-120224,PDF,2794,M5,Clinical trial data,KC Joubran,"mRNA-1273, COVID-19 vaccine, Benchmark Research, participant data, screen fail, Moderna, enrollment, CBER, protocol amendment, demographics, FDA, clinical trial, participant creation, screening, Fort Worth, US3442024, informed consent",False,False,False,False
125752_S3_M5_CRF_mrna-1273-p301-us3442060.pdf,mRNA-1273-P301 Participant Creation Data,2021-06-09,https://drive.google.com/file/d/1QduwBr1HIJKH3lS-uOX1EYbZ2M5l1GS9/view?usp=drivesdk,md-production-120224,PDF,2300,M5,clinical trial data,KC Joubran,"mRNA-1273, P301, Benchmark Research, participant data, vaccine, Moderna, enrollment, CBER, FDA, demographics, clinical trial, US3442060, production release, screening form, Fort Worth, informed consent, COVID-19",False,False,False,False
125752_S3_M5_CRF_mrna-1273-p301-us3442051.pdf,mRNA-1273-P301 Participant Creation Data,2021-06-09,https://drive.google.com/file/d/1uBZwTL6v7PLC7bAqt1TJNOFXTgrHWb7J/view?usp=drivesdk,md-production-120224,PDF,4391,M5,Clinical trial data,KC Joubran,"mRNA-1273, Benchmark Research, vaccine, participant data, protocol amendment, enrollment, CBER, Moderna, FDA, demographics, clinical trial, participant creation, Fort Worth, screening, US3442051, informed consent, COVID-19",False,False,False,False
125752_S3_M5_CRF_mrna-1273-p301-us3442068.pdf,mRNA-1273-P301 Participant Creation Data,2021-06-09,https://drive.google.com/file/d/1gHShva-2rT8DdNtUxRFFVJR3zQHWGkWh/view?usp=drivesdk,md-production-120224,PDF,2031,M5,Clinical trial data,KC Joubran,"mRNA-1273, data generation, Benchmark Research, participant data, vaccine, Moderna, enrollment, CBER, protocol amendment, FDA, demographics, clinical trial, participant creation, screening, Fort Worth, informed consent, COVID-19",False,False,False,False
125752_S3_M5_CRF_mrna-1273-p301-us3442074.pdf,mRNA-1273-P301 Participant Creation Data,2021-06-09,https://drive.google.com/file/d/1TU7OMDtYENoc7GxW5xhnV_Xu1s8tfvjn/view?usp=drivesdk,md-production-120224,PDF,1676,M5,Clinical trial data,KC Joubran,"mRNA-1273, visit date, race, ethnicity, participant data, screen fail, protocol amendment, enrollment, CBER, age, FDA, demographics, clinical trial, participant ID, Moderna, screening, sex, informed consent",False,False,False,False
125752_S3_M5_CRF_mrna-1273-p301-us3442096.pdf,mRNA-1273-P301 Participant Creation Data,2021-08-11,https://drive.google.com/file/d/1wGdVIm-vmHsw7bwj-3F2Iyp9XG7YOElq/view?usp=drivesdk,md-production-120224,PDF,3309,M5,Clinical trial data,KC Joubran,"mRNA-1273, Benchmark Research, participant data, vaccine, Moderna, enrollment, CBER, FDA, demographics, clinical trial, production release, US3442096, screening, participant creation, Fort Worth, informed consent, COVID-19",False,False,False,False
125752_S3_M5_CRF_mrna-1273-p301-us3442087.pdf,mRNA-1273-P301 Participant Creation Data,2021-06-09,https://drive.google.com/file/d/1ERMCIGV8loypAHeouRoYqX2byA_VrnsZ/view?usp=drivesdk,md-production-120224,PDF,2573,M5,clinical trial data,KC Joubran,"visit date, race, protocol amendment, demographics, mRNA-1273, enrollment, sex, informed consent, COVID-19 vaccine, age, FDA, participant ID, clinical trial, screening, ethnicity, participant data, screen fail, Moderna, CBER",False,False,False,False
125752_S3_M5_CRF_mrna-1273-p301-us3482023.pdf,mRNA-1273 Phase 3 Clinical Trial Report,2023,https://drive.google.com/file/d/1jfBz1fe4rOUxjY-kucXNqT-2ZI8VhIfA/view?usp=drivesdk,md-production-120224,PDF,2,M5,Clinical Trial Report,,"mRNA-1273, Immunogenicity, Pandemic Response, Efficacy, Public Health, Moderna, Safety, CBER, Vaccine, FDA, Medical Innovation, Adverse Events, Regulatory Submission, Pharmaceutical Research, Clinical Trial Report, Phase 3 Clinical Trial, COVID-19",False,False,False,False
125752_S3_M5_CRF_mrna-1273-p301-us3442173.pdf,mRNA-1273-P301 Participant Creation Data,2021-08-11,https://drive.google.com/file/d/1xmKiP2jT84ZIpQKnTy6gHxFZqVO0GpjH/view?usp=drivesdk,md-production-120224,PDF,2780,M5,Clinical trial data,KC Joubran,"mRNA-1273, Benchmark Research, participant data, vaccine, protocol amendment, enrollment, CBER, Moderna, FDA, demographics, clinical trial, Fort Worth, participant creation, screening, US3442173, informed consent, COVID-19",False,False,False,False
125752_S3_M5_CRF_mrna-1273-p301-us3482005.pdf,mRNA-1273 Phase 3 Clinical Trial Report,2022,https://drive.google.com/file/d/1G-5gw0AvjT-QshhvknKaW7pbiIOggs34/view?usp=drivesdk,md-production-120224,PDF,2,M5,Clinical Trial Report,,"mRNA-1273, Immunogenicity, Pandemic Response, Efficacy, Public Health, Moderna, Safety, CBER, Vaccine, FDA, Medical Innovation, Adverse Events, Regulatory Submission, Pharmaceutical Research, Clinical Trial Report, Phase 3 Clinical Trial, COVID-19",False,False,False,False
125752_S3_M5_CRF_mrna-1273-p301-us3442113.pdf,mRNA-1273-P301 Participant Creation Data,09 Jun 2021,https://drive.google.com/file/d/1Slu6sVi0pOOQJDITwghWDvVPBNq3fxbS/view?usp=drivesdk,md-production-120224,PDF,2862,M5,Clinical Trial Form,KC Joubran,"mRNA-1273, Demographics, Visit Date, Race, Completion Guidelines, Sex, Clinical Trial, Ethnicity, Participant ID, Age, Benchmark Research, Informed Consent, CBER, Participant Enrollment, FDA, Fort Worth, COVID-19, Screening Form",False,False,False,False
125752_S3_M5_CRF_mrna-1273-p301-us3482064.pdf,mRNA-1273 Phase 3 Clinical Trial Report,2022,https://drive.google.com/file/d/1wK3vhUv9B-W52Om_Cns2W8T2ZR9KeESq/view?usp=drivesdk,md-production-120224,PDF,2,M5,Clinical Trial Report,,"mRNA-1273, Immunogenicity, Pandemic Response, Efficacy, Public Health, Moderna, Safety, CBER, Vaccine, FDA, Medical Innovation, Adverse Events, Regulatory Submission, Pharmaceutical Research, Clinical Trial Report, Phase 3 Clinical Trial, COVID-19",False,False,False,False
125752_S3_M5_CRF_mrna-1273-p301-us3482145.pdf,mRNA-1273 Phase 3 Clinical Trial Report,2022,https://drive.google.com/file/d/1XV5Y6H5EtKD-_BS-_1APv45Gg5BiPsza/view?usp=drivesdk,md-production-120224,PDF,2,M5,Clinical Trial Report,,"mRNA-1273, FDA Submission, Immunogenicity, Pandemic Response, Efficacy, Epidemiology, Public Health, Moderna, Safety, CBER, Vaccine, Regulatory Approval, Pharmaceutical Research, Biomedical Innovation, Phase 3 Clinical Trial, Clinical Trial Data, COVID-19",False,False,False,False
125752_S3_M5_CRF_mrna-1273-p301-us3482240.pdf,mRNA-1273 Phase 3 Clinical Trial Report,2022,https://drive.google.com/file/d/1aYFJr1oxJHHJnL7XZE5kDvdbeelNpnY9/view?usp=drivesdk,md-production-120224,PDF,2,M5,Clinical Trial Report,,"mRNA-1273, FDA Submission, Immunogenicity, Pandemic Response, Efficacy, Public Health, Moderna, Safety, CBER, Vaccine, Medical Innovation, Adverse Events, Regulatory Filing, Pharmaceutical Research, Phase 3 Clinical Trial, Clinical Trial Data, COVID-19",False,False,False,False
125752_S3_M5_CRF_mrna-1273-p301-us3482267.pdf,mRNA-1273 Phase 3 Clinical Trial Report,2022,https://drive.google.com/file/d/1TH5aMK2yFsucAga2k-K4OYImr4P82mze/view?usp=drivesdk,md-production-120224,PDF,2,M5,Clinical Trial Report,,"mRNA-1273, FDA Submission, Immunogenicity, Pandemic Response, Efficacy, Public Health, Moderna, Safety, CBER, Vaccine, Medical Innovation, Adverse Events, Regulatory Submission, Pharmaceutical Research, Clinical Trial Report, Phase 3 Clinical Trial, COVID-19",False,False,False,False
125752_S3_M5_CRF_mrna-1273-p301-us3482094.pdf,mRNA-1273 Phase 3 Clinical Trial Report,2022,https://drive.google.com/file/d/1dj4qstvBDlgPUeK2PbDd5mgM3Gvx8pKl/view?usp=drivesdk,md-production-120224,PDF,2,M5,Clinical Trial Report,,"mRNA-1273, Immunogenicity, Pandemic Response, Efficacy, Public Health, Moderna, Safety, CBER, Vaccine, FDA, Medical Innovation, Adverse Events, Regulatory Submission, Pharmaceutical Research, Clinical Trial Report, Phase 3 Clinical Trial, COVID-19",False,False,False,False
125752_S3_M5_CRF_mrna-1273-p301-us3482284.pdf,mRNA-1273 COVID-19 Vaccine Clinical Trial Report,2022,https://drive.google.com/file/d/1s1e5aox-_k-2iWR-7zj4pLGtMHff2uhv/view?usp=drivesdk,md-production-120224,PDF,2,M5,Clinical Trial Report,,"mRNA-1273, pandemic response, medical research, pharmaceutical industry, regulatory affairs, COVID-19 vaccine, data analysis, patient outcomes, vaccine distribution, vaccine efficacy, public health, CBER, FDA, clinical trial, vaccine development, vaccine safety, SARS-CoV-2",False,False,False,False
125752_S3_M5_CRF_mrna-1273-p301-us3492061.pdf,mRNA-1273 Phase 3 Clinical Trial Report,2022,https://drive.google.com/file/d/18J0DmlaYtOCBMm7LT7X-FuQuCit1rwmS/view?usp=drivesdk,md-production-120224,PDF,2,M5,Clinical Trial Report,,"mRNA-1273, Immunogenicity, Pandemic Response, Efficacy, Public Health, Moderna, Safety, CBER, Vaccine, FDA, Medical Innovation, Adverse Events, Regulatory Submission, Pharmaceutical Research, Clinical Trial Report, Phase 3 Clinical Trial, COVID-19",False,False,False,False
125752_S3_M5_CRF_mrna-1273-p301-us3482302.pdf,mRNA-1273 Phase 3 Clinical Trial Report,2022,https://drive.google.com/file/d/1wXQyWeosW6A5Gw-FW0j5zYnmRLq21wf5/view?usp=drivesdk,md-production-120224,PDF,2,M5,Clinical Trial Report,,"mRNA-1273, Immunogenicity, Pandemic Response, Efficacy, Public Health, Moderna, Safety, CBER, Vaccine, FDA, Medical Innovation, Adverse Events, Regulatory Submission, Pharmaceutical Research, Clinical Trial Report, Phase 3 Clinical Trial, COVID-19",False,False,False,False
125752_S3_M5_CRF_mrna-1273-p301-us3492064.pdf,mRNA-1273 Phase 3 Clinical Trial Report,2022,https://drive.google.com/file/d/1GWQtAMA0fUHrsskA-M2u4GDu_Lh3Jw39/view?usp=drivesdk,md-production-120224,PDF,2,M5,Clinical Trial Report,,"mRNA-1273, Immunogenicity, Pandemic Response, Efficacy, Public Health, Biomedical Science, Moderna, Safety, CBER, Vaccine, FDA, Adverse Events, Regulatory Submission, Pharmaceutical Research, Clinical Trial Report, Phase 3 Clinical Trial, COVID-19",False,False,False,False
125752_S3_M5_CRF_mrna-1273-p301-us3492078.pdf,mRNA-1273 Phase 3 Clinical Trial Report,2022,https://drive.google.com/file/d/1X5xUjdezxlqLMiDJzX9pXNX_PvyyyT4H/view?usp=drivesdk,md-production-120224,PDF,2,M5,Clinical Trial Report,,"mRNA-1273, Immunogenicity, Pandemic Response, Efficacy, Public Health, Biomedical Science, Moderna, Safety, CBER, Vaccine, FDA, Adverse Events, Regulatory Submission, Pharmaceutical Research, Clinical Trial Report, Phase 3 Clinical Trial, COVID-19",False,False,False,False
125752_S3_M5_CRF_mrna-1273-p301-us3482286.pdf,mRNA-1273 COVID-19 Vaccine Clinical Trial,2022,https://drive.google.com/file/d/120Kbx9JjO__pFBrmxZbR3xVVEBJHHqRv/view?usp=drivesdk,md-production-120224,PDF,2,M5,Clinical Trial Report,,"mRNA-1273, Infectious Disease, Clinical Trial, Vaccine Development, Public Health, Vaccine Efficacy, COVID-19 Vaccine, Regulatory Compliance, Clinical Data Analysis, CBER, FDA, Molecular Biology, Biomedical Engineering, Adverse Event Monitoring, Pharmaceutical Regulations, Pharmaceutical Research, Immunology",False,False,False,False
125752_S3_M5_CRF_mrna-1273-p301-us3492178.pdf,mRNA-1273 COVID-19 Vaccine Clinical Trial,2022,https://drive.google.com/file/d/1rPRMUCBX2yMsdW_Qt_2-ZH7Lj5MZeY7X/view?usp=drivesdk,md-production-120224,PDF,2,M5,Clinical Trial Report,,"mRNA-1273, pandemic response, medical research, regulatory submission, pharmaceutical industry, COVID-19 vaccine, immunogenicity, infectious disease, vaccine efficacy, adverse events, public health, CBER, FDA, clinical trial, biotechnology, vaccine development, vaccine safety",False,False,False,False
125752_S3_M5_CRF_mrna-1273-p301-us3492085.pdf,mRNA-1273 Phase 3 Clinical Trial Report,2022,https://drive.google.com/file/d/1jHNhw6uTNtvtfK0MeNOPGyliPJJ-UUP1/view?usp=drivesdk,md-production-120224,PDF,2,M5,Clinical Trial Report,,"mRNA-1273, FDA Submission, Immunogenicity, Pandemic Response, Efficacy, Public Health, Moderna, Safety, CBER, Vaccine, Regulatory Approval, Adverse Events, Pharmaceutical Research, Medical Innovation, Phase 3 Clinical Trial, Clinical Trial Data, COVID-19",False,False,False,False
125752_S3_M5_CRF_mrna-1273-p301-us3492117.pdf,mRNA-1273 COVID-19 Vaccine Clinical Trial,2022,https://drive.google.com/file/d/12BCZw0dagA14KvuzyLmqiDhSOvVOE8qQ/view?usp=drivesdk,md-production-120224,PDF,2,M5,Clinical Trial Report,,"mRNA-1273, pandemic response, medical research, pharmaceutical industry, regulatory affairs, COVID-19 vaccine, vaccine distribution, vaccine surveillance, vaccine efficacy, public health, CBER, vaccine administration, FDA, clinical trial, vaccine policy, vaccine development, vaccine safety",False,False,False,False
125752_S3_M5_CRF_mrna-1273-p301-us3492228.pdf,mRNA-1273 Phase 3 Clinical Trial Report,2022,https://drive.google.com/file/d/1kk4YpbwGSJqapyhFhISGjrji4BhlB0ox/view?usp=drivesdk,md-production-120224,PDF,2,M5,Clinical Trial Report,,"mRNA-1273, Immunogenicity, Pandemic Response, Efficacy, Public Health, Moderna, Safety, CBER, Vaccine, FDA, Medical Innovation, Adverse Events, Regulatory Submission, Pharmaceutical Research, Clinical Trial Report, Phase 3 Clinical Trial, COVID-19",False,False,False,False
125752_S3_M5_CRF_mrna-1273-p301-us3492237.pdf,mRNA-1273 Phase 3 Clinical Trial Report,2022,https://drive.google.com/file/d/1NNhUlImtHr45z-dl_2WraaFzyfenB9oH/view?usp=drivesdk,md-production-120224,PDF,2,M5,Clinical Trial Report,,"mRNA-1273, FDA Submission, Immunogenicity, Pandemic Response, Efficacy, Public Health, Moderna, Safety, CBER, Vaccine, Medical Innovation, Adverse Events, Regulatory Submission, Pharmaceutical Research, Clinical Trial Report, Phase 3 Clinical Trial, COVID-19",False,False,False,False
125752_S3_M5_CRF_mrna-1273-p301-us3492107.pdf,mRNA-1273 Phase 3 Clinical Trial Report,2022,https://drive.google.com/file/d/11ff5PS9BFXk8xGyobbMnCLBfWpxkJfuf/view?usp=drivesdk,md-production-120224,PDF,2,M5,Clinical Trial Report,,"mRNA-1273, Immunogenicity, Pandemic Response, Efficacy, Public Health, Biomedical Science, Moderna, Safety, CBER, Vaccine, FDA, Adverse Events, Regulatory Submission, Pharmaceutical Research, Clinical Trial Report, Phase 3 Clinical Trial, COVID-19",False,False,False,False
125752_S3_M5_CRF_mrna-1273-p301-us3492243.pdf,mRNA-1273 Phase 3 Clinical Trial Report,2022,https://drive.google.com/file/d/1gCbTBL56ShSo8zuZohRIP9nzrFbCUPpI/view?usp=drivesdk,md-production-120224,PDF,2,M5,Clinical Trial Report,,"mRNA-1273, Immunogenicity, Pandemic Response, Efficacy, Public Health, Moderna, Safety, CBER, Vaccine, FDA, Medical Innovation, Adverse Events, Regulatory Submission, Pharmaceutical Research, Clinical Trial Report, Phase 3 Clinical Trial, COVID-19",False,False,False,False
125752_S3_M5_CRF_mrna-1273-p301-us3492242.pdf,mRNA-1273 Vaccine Clinical Trial Report,2022,https://drive.google.com/file/d/1UdBTHDOr6lCgGv0P5XGSjG1v8BiF1K2Y/view?usp=drivesdk,md-production-120224,PDF,2,M5,Clinical Trial Report,,"mRNA-1273, Immunogenicity, Biostatistics, Efficacy, Pharmacodynamics, Clinical Trial, Regulatory Compliance, Moderna, Safety, CBER, Vaccine, FDA, Pharmacokinetics, Adverse Events, Pharmaceutical Research, Immunology, COVID-19",False,False,False,False
125752_S3_M5_CRF_mrna-1273-p301-us3492273.pdf,mRNA-1273 Phase 3 Clinical Trial Report,2022,https://drive.google.com/file/d/1duc-d6td1NN93gu0zxhAjxu1S-pknctw/view?usp=drivesdk,md-production-120224,PDF,2,M5,Clinical Trial Report,,"mRNA-1273, Immunogenicity, Pandemic Response, Efficacy, Public Health, Biomedical Science, Moderna, Safety, CBER, Vaccine, FDA, Adverse Events, Regulatory Submission, Pharmaceutical Research, Clinical Trial Report, Phase 3 Clinical Trial, COVID-19",False,False,False,False
125752_S3_M5_CRF_mrna-1273-p301-us3492281.pdf,mRNA-1273 Phase 3 Clinical Trial Report,2022,https://drive.google.com/file/d/1_G9TRRzX0c9FqRi-nnq-ZMJAGDLxY2JQ/view?usp=drivesdk,md-production-120224,PDF,2,M5,Clinical Trial Report,,"mRNA-1273, Immunogenicity, Pandemic Response, Efficacy, Public Health, Moderna, Safety, CBER, Vaccine, FDA, Medical Innovation, Adverse Events, Regulatory Submission, Pharmaceutical Research, Clinical Trial Report, Phase 3 Clinical Trial, COVID-19",False,False,False,False
125752_S3_M5_CRF_mrna-1273-p301-us3492299.pdf,mRNA-1273 Phase 3 Clinical Trial Report,2022,https://drive.google.com/file/d/1NMFWoyj6qZYsr5YPnKcqhcnVbTw6ruXt/view?usp=drivesdk,md-production-120224,PDF,2,M5,Clinical Trial Report,,"mRNA-1273, Immunogenicity, Pandemic Response, Efficacy, Public Health, Biomedical Science, Moderna, Safety, CBER, Vaccine, FDA, Adverse Events, Regulatory Submission, Pharmaceutical Research, Clinical Trial Report, Phase 3 Clinical Trial, COVID-19",False,False,False,False
125752_S3_M5_CRF_mrna-1273-p301-us3572027.pdf,Placeholder Document - Replace FDA-CBER-2022-1614-2476652,2022,https://drive.google.com/file/d/1gWVk5wrZI58P1DPBasdr-eMo6q7_c66n/view?usp=drivesdk,md-production-120224,PDF,2,M5,Placeholder,,"Clinical, Biotechnology, Replacement, Biomedical, Pharmaceutical, Regulatory, Form, CBER, Vaccine, FDA, Research, Document, Submission, mRNA, Immunology, Placeholder",False,False,False,False
125752_S3_M5_CRF_mrna-1273-p301-us3572086.pdf,Placeholder Document - Replace FDA-CBER-2022-1614-2481125,2022,https://drive.google.com/file/d/1BE8bSpkJcqSKkQMM0MxlOe8gs5IMYgLj/view?usp=drivesdk,md-production-120224,PDF,2,M5,Placeholder,,"1614, 2481125, us3572086, p301, 2022, fda, document, replacement, 2481126, mrna, placeholder, 1273, clinical, form, vaccine, cber, research",False,False,False,False
125752_S3_M5_CRF_mrna-1273-p301-us3572125.pdf,Placeholder Document - Replace FDA-CBER-2022-1614-2487647,2022,https://drive.google.com/file/d/10Mpxq1DDRSCv_RWpQd1XxMTMyi3SH4l0/view?usp=drivesdk,md-production-120224,PDF,2,M5,Placeholder,,"1614, file, p301, 2022, fda, mrna, 2487647, vaccine, 1273, placeholder, document, clinical, replacement, cber, research, us3572125, 2487648",False,False,False,False
125752_S3_M5_CRF_mrna-1273-p301-us3572076.pdf,Placeholder Document - Replace FDA-CBER-2022-1614-2478955,2022,https://drive.google.com/file/d/1qpbN1wohJOVFgm9s0UAlHy69JOLDguDV/view?usp=drivesdk,md-production-120224,PDF,2,M5,Placeholder,,"1614, 2478955, p301, regulatory, 2022, fda, mrna, document, replacement, 1273, placeholder, vaccine, clinical, cber, research, us3572076, 2478956",False,False,False,False
125752_S3_M5_CRF_mrna-1273-p301-us3572116.pdf,Placeholder Document - Replace FDA-CBER-2022-1614-2482985,2022,https://drive.google.com/file/d/1ckbkFBwB5UVdT0S50FO8ZwOBWZspLLPB/view?usp=drivesdk,md-production-120224,PDF,2,M5,Placeholder,,"government, medical research, regulatory, document, pharmaceutical, replacement, vaccine, placeholder, submission, CBER, healthcare, FDA, public health, clinical trial, biotechnology, mRNA, COVID-19",False,False,False,False
125752_S3_M5_CRF_mrna-1273-p301-us3572134.pdf,Placeholder Document - Replace FDA-CBER-2022-1614-2490594,2022,https://drive.google.com/file/d/1bpDnQ59ARUYVrme11lksHqoMMYkG_tCM/view?usp=drivesdk,md-production-120224,PDF,2,M5,Placeholder,,"1614, 2490595, p301, filing, regulatory, 2022, fda, mrna, document, 1273, placeholder, clinical, replace, cber, 2490594, pdf, us3572134",False,False,False,False
125752_S3_M5_CRF_mrna-1273-p301-us3572170.pdf,Placeholder Document - Replace FDA-CBER-2022-1614-2492776,2022,https://drive.google.com/file/d/17oHrPwU6OdaL4k5AZ4M4bxEOgJg9mS2j/view?usp=drivesdk,md-production-120224,PDF,2,M5,Placeholder,,"Clinical, Replacement, Regulatory_Affairs, Biomedical, Pharmaceutical, Regulatory, Form, CBER, Vaccine, FDA, Research, Document, Submission, Healthcare, mRNA, Vaccine_Development, Placeholder",False,False,False,False
125752_S3_M5_CRF_mrna-1273-p301-us3572120.pdf,Placeholder Document - Replace FDA-CBER-2022-1614-2484912,2022,https://drive.google.com/file/d/1WK8R_4daaQJid-3EZmrfdZob--bEV7I2/view?usp=drivesdk,md-production-120224,PDF,2,M5,Placeholder,,"1614, p301, regulatory, 2022, fda, mrna, document, 2484912, 2484913, placeholder, 1273, us3572120, replacement, clinical, vaccine, cber, research",False,False,False,False
125752_S3_M5_CRF_mrna-1273-p301-us3572251.pdf,Placeholder Document - Replace FDA-CBER-2022-1614-2499788,2022,https://drive.google.com/file/d/1iYo6jaMR9OzpsQ-_Gt13PWkCReaDABak/view?usp=drivesdk,md-production-120224,PDF,2,M5,Placeholder,,"1614, p301, pdf, 2022, fda, document, mrna, 2499789, placeholder, 1273, clinical, form, replace, cber, research, 2499788, us3572251",False,False,False,False
125752_S3_M5_CRF_mrna-1273-p301-us3572324.pdf,Placeholder Document - Replace FDA-CBER-2022-1614-2502533FDA-CBER-2022-1614-2502534,Unknown,https://drive.google.com/file/d/1MqEfLD8gFW80sfUXSVlhHB6MEUzYCL3_/view?usp=drivesdk,md-production-120224,PDF,2,M5,Placeholder,,"1614, p301, 2022, fda, document, mrna, 2502533, 1273, placeholder, clinical, form, us3572324, replace, cber, research, pdf, 2502534",False,False,False,False
125752_S3_M5_CRF_mrna-1273-p301-us3622012.pdf,mRNA-1273 Phase 3 Clinical Trial Report,2022,https://drive.google.com/file/d/1jo_IECSGx8RzsB4Ap7QWVIrbP2EoMVdU/view?usp=drivesdk,md-production-120224,PDF,2,M5,Clinical Trial Report,,"mRNA-1273, Immunogenicity, Pandemic Response, Efficacy, Public Health, Moderna, Safety, CBER, Vaccine, FDA, Medical Innovation, Adverse Events, Regulatory Submission, Pharmaceutical Research, Clinical Trial Report, Phase 3 Clinical Trial, COVID-19",False,False,False,False
125752_S3_M5_CRF_mrna-1273-p301-us3572199.pdf,Placeholder Document - Replace FDA-CBER-2022-1614-2497658,2022,https://drive.google.com/file/d/1DXAJMmk9KQD0MsMDelTr5Ja4u3CUAzr3/view?usp=drivesdk,md-production-120224,PDF,2,M5,Placeholder,,"file, regulatory, document, pharmaceutical, replacement, vaccine, placeholder, submission, CBER, clinical, FDA, public_health, biotechnology, research, medical, mRNA, COVID-19",False,False,False,False
125752_S3_M5_CRF_mrna-1273-p301-us3572181.pdf,Placeholder Document - Replace FDA-CBER-2022-1614-2494957,2022,https://drive.google.com/file/d/1x_YAaHJsaXjl2EdNn5cM62t__yCcMHaR/view?usp=drivesdk,md-production-120224,PDF,2,M5,Placeholder,,"medical research, regulatory, document, pharmaceutical, replacement, vaccine, placeholder, submission, CBER, public health, FDA, scientific report, clinical trial, government document, data placeholder, mRNA, COVID-19",False,False,False,False
125752_S3_M5_CRF_mrna-1273-p301-us3572330.pdf,Placeholder Document - Replace FDA-CBER-2022-1614-2504232,2022,https://drive.google.com/file/d/1GegaWevkFzkVUV7IUSqze_UxtqIfUvsN/view?usp=drivesdk,md-production-120224,PDF,2,M5,Placeholder,,"1614, p301, regulatory, 2504233, 2022, fda, mrna, vaccine, 2504232, placeholder, 1273, clinical, form, us3572330, cber, research, covid-19",False,False,False,False
125752_S3_M5_CRF_mrna-1273-p301-us3622116.pdf,mRNA-1273 Phase 3 Clinical Trial Report,2022,https://drive.google.com/file/d/1J_1cGa44zOp59G82Qnz8ZvC8m4dx1yYb/view?usp=drivesdk,md-production-120224,PDF,2,M5,Clinical Trial Report,,"mRNA-1273, FDA Submission, Immunogenicity, Pandemic Response, Efficacy, Public Health, Moderna, Safety, CBER, Vaccine, Medical Innovation, Adverse Events, Regulatory Filing, Pharmaceutical Research, Phase 3 Clinical Trial, Clinical Trial Data, COVID-19",False,False,False,False
125752_S3_M5_CRF_mrna-1273-p301-us3622160.pdf,mRNA-1273 Phase 3 Clinical Trial Report,2022,https://drive.google.com/file/d/1Us62C9C2nKE1zXswP9qOVdlNOsuP4a07/view?usp=drivesdk,md-production-120224,PDF,2,M5,Clinical Trial Report,,"mRNA-1273, Immunogenicity, Pandemic Response, Efficacy, Public Health, Moderna, Safety, CBER, Vaccine, FDA, Medical Innovation, Adverse Events, Regulatory Submission, Pharmaceutical Research, Clinical Trial Report, Phase 3 Clinical Trial, COVID-19",False,False,False,False
125752_S3_M5_CRF_mrna-1273-p301-us3622142.pdf,mRNA-1273 Phase 3 Clinical Trial Report,2022,https://drive.google.com/file/d/1SnCsUewbBOc7huElLnbJZvR-EKTYQBBy/view?usp=drivesdk,md-production-120224,PDF,2,M5,Clinical Trial Report,,"mRNA-1273, FDA Submission, Immunogenicity, Pandemic Response, Efficacy, Public Health, Moderna, Safety, CBER, Vaccine, Medical Innovation, Adverse Events, Regulatory Submission, Pharmaceutical Research, Clinical Trial Report, Phase 3 Clinical Trial, COVID-19",False,False,False,False
125752_S3_M5_CRF_mrna-1273-p301-us3622032.pdf,mRNA-1273 Phase 3 Clinical Trial Report,2022,https://drive.google.com/file/d/1_vEofe0cgAme3ztz-dL_V72FHJgBFdZD/view?usp=drivesdk,md-production-120224,PDF,2,M5,Clinical Trial Report,,"mRNA-1273, FDA Submission, Immunogenicity, Pandemic Response, Efficacy, Public Health, Moderna, Safety, CBER, Vaccine, Regulatory Approval, Adverse Events, Pharmaceutical Research, Medical Innovation, Phase 3 Clinical Trial, Clinical Trial Data, COVID-19",False,False,False,False
125752_S3_M5_CRF_mrna-1273-p301-us3622169.pdf,mRNA-1273 Phase 3 Clinical Trial Report,2022,https://drive.google.com/file/d/1jWAtWrBIWBj9dk2xDvXmhCEAbPnnnigZ/view?usp=drivesdk,md-production-120224,PDF,2,M5,Clinical Trial Report,,"mRNA-1273, Immunogenicity, Pandemic Response, Efficacy, Public Health, Moderna, Safety, CBER, Vaccine, FDA, Medical Innovation, Adverse Events, Regulatory Submission, Pharmaceutical Research, Clinical Trial Report, Phase 3 Clinical Trial, COVID-19",False,False,False,False
125752_S3_M5_CRF_mrna-1273-p301-us3622206.pdf,mRNA-1273 Phase 3 Clinical Trial Report,2022,https://drive.google.com/file/d/1XA14GKKr2zKiQP3-EdR5HD5laQDCDC6m/view?usp=drivesdk,md-production-120224,PDF,2,M5,Clinical Trial Report,,"mRNA-1273, Immunogenicity, Pandemic Response, Efficacy, Public Health, Biomedical Science, Moderna, Safety, CBER, Vaccine, FDA, Adverse Events, Regulatory Submission, Pharmaceutical Research, Clinical Trial Report, Phase 3 Clinical Trial, COVID-19",False,False,False,False
125752_S3_M5_CRF_mrna-1273-p301-us3622211.pdf,mRNA-1273 Phase 3 Clinical Trial Report,2022,https://drive.google.com/file/d/1U1KXO2p2YfeTn8TBUXxeTJrde9_CYkEI/view?usp=drivesdk,md-production-120224,PDF,2,M5,Clinical Trial Report,,"mRNA-1273, Immunogenicity, Pandemic Response, Efficacy, Public Health, Moderna, Safety, CBER, Vaccine, FDA, Medical Innovation, Adverse Events, Regulatory Submission, Pharmaceutical Research, Clinical Trial Report, Phase 3 Clinical Trial, COVID-19",False,False,False,False
125752_S3_M5_CRF_mrna-1273-p301-us3622197.pdf,mRNA-1273 Phase 3 Clinical Trial Report,2022,https://drive.google.com/file/d/14GgB3LvaUxYWq5ZXkn5LBZs-dFy84S_L/view?usp=drivesdk,md-production-120224,PDF,2,M5,Clinical Trial Report,,"mRNA-1273, Immunogenicity, Pandemic Response, Efficacy, Public Health, Biomedical Science, Moderna, Safety, CBER, Vaccine, FDA, Adverse Events, Regulatory Submission, Pharmaceutical Research, Clinical Trial Report, Phase 3 Clinical Trial, COVID-19",False,False,False,False
125752_S3_M5_CRF_mrna-1273-p301-us3622282.pdf,mRNA-1273 Phase 3 Clinical Trial Report,2022,https://drive.google.com/file/d/1fQRE4IFitY3NG0usRHk9aEZk6PpTOe1f/view?usp=drivesdk,md-production-120224,PDF,2,M5,Clinical Trial Report,,"mRNA-1273, Immunogenicity, Pandemic Response, Efficacy, Public Health, Moderna, Safety, CBER, Vaccine, FDA, Medical Innovation, Adverse Events, Regulatory Submission, Pharmaceutical Research, Clinical Trial Report, Phase 3 Clinical Trial, COVID-19",False,False,False,False
FDA-CBER-2022-1614-2529874-2532765_125752_S3_M5_mrna-1273-p301_S_se.xpt,mRNA-1273 Phase 3 Study Report,2022,https://drive.google.com/file/d/17JVfAINFe8sHGNJ_hAc-xSAgi9wb6Rlz/view?usp=drivesdk,md-production-120224,XPT,0,M5,Clinical Study Report,mRNA-1273,"Biostatistics, Immunogenicity, Epidemiology, Virology, Efficacy, Pharmacodynamics, Phase 3 clinical trial, Moderna, Safety, CBER, Adverse events, FDA, Pharmacokinetics, Regulatory submission, mRNA vaccine, Immunology, COVID-19",False,False,False,False
FDA-CBER-2022-1614-2532766-2538054_125752_S3_M5_mrna-1273-p301_A_D_admb.xpt,Moderna COVID-19 Vaccine Clinical Trial Data,2022,https://drive.google.com/file/d/1QeFLPxH7m1s5aeKg3jFg6hm8wcTr4Lda/view?usp=drivesdk,md-production-120224,XPT,0,M5,Clinical Trial Data,mRNA-1273,"Biostatistics, Immunogenicity, Data Analysis, Efficacy, Pharmacodynamics, Clinical Trial, Moderna, Safety, CBER, Vaccine, FDA, Pharmacokinetics, Biomarkers, Adverse Events, Regulatory Submission, mRNA, COVID-19",False,False,False,False
FDA-CBER-2022-1614-2538055-2544587_125752_S3_M5_mrna-1273-p301_A_D_adis.xpt,mRNA-1273 Phase 3 Study Data,2022,https://drive.google.com/file/d/1su8o2Nu1O3VS4fWrpkk3-Lv9ByVCo1o1/view?usp=drivesdk,md-production-120224,XPT,0,M5,Clinical Study Data,"mRNA-1273, P301","Biostatistics, Immunogenicity, Epidemiology, Efficacy, Clinical Trial, Study Data, Phase 3, Moderna, Safety, CBER, Vaccine, FDA, Adverse Events, Regulatory Submission, Pharmacology, mRNA, Toxicology",False,False,False,False
FDA-CBER-2022-1614-2544588-2551654_125752_S3_M5_mrna-1273-p301_S_suppae.xpt,Moderna COVID-19 Vaccine Clinical Trial Data,2022,https://drive.google.com/file/d/1rw4ZuDRZgaFAC6BBdnA7dKEohJWGSOOq/view?usp=drivesdk,md-production-120224,XPT,0,M5,Clinical Trial Report,mRNA-1273,"Biostatistics, Immunogenicity, Supplementary Data, Efficacy, Clinical Trial, Pharmaceutical Development, Moderna, Safety, CBER, Vaccine, FDA, Adverse Events, Regulatory Submission, Toxicology, Pharmacology, mRNA, COVID-19",False,False,False,False
FDA-CBER-2022-1614-2551655-2558961_125752_S3_M5_mrna-1273-p301_S_mb.xpt,mRNA-1273 Phase 3 Study Data,2022,https://drive.google.com/file/d/15zK1nbcgGQO19y5BemY7J5srRtl0b6Rb/view?usp=drivesdk,md-production-120224,XPT,0,M5,Clinical Study Data,mRNA-1273,"Biostatistics, Immunogenicity, Efficacy, Pharmacodynamics, Clinical Trial, Study Data, Regulatory Compliance, Phase 3, Moderna, Safety, CBER, Vaccine, FDA, Pharmacokinetics, Regulatory Submission, Adverse Events, mRNA",False,False,False,False
FDA-CBER-2022-1614-2558962-2566638_125752_S3_M5_mrna-1273-p301_A_D_adeff3.xpt,mRNA-1273 Phase 3 Study Data,2022,https://drive.google.com/file/d/1f1Gg23kW2pkgFEm7US_tqvSpZEVTdlCM/view?usp=drivesdk,md-production-120224,XPT,0,M5,Clinical Study Data,mRNA-1273,"Biostatistics, Epidemiology, Efficacy, Clinical Trial, Public Health, Phase 3, Moderna, Safety, CBER, Vaccine, FDA, Adverse Events, Regulatory Submission, Pharmaceutical Research, mRNA, Immunology, COVID-19",False,False,False,False
FDA-CBER-2022-1614-2566639-2580044_125752_S3_M5_mrna-1273-p301_A_D_adeff2.xpt,mRNA-1273 Phase 3 Clinical Study,2022,https://drive.google.com/file/d/1Qt0tsKQWV_0-KOUUdzne15QIOGQAg6FQ/view?usp=drivesdk,md-production-120224,XPT,0,M5,Clinical Study Report,mRNA-1273,"mRNA-1273, Immunogenicity, Biostatistics, Data Analysis, Efficacy, Pharmacodynamics, Clinical Trial, Phase 3, Moderna, Safety, CBER, Vaccine, FDA, Pharmacokinetics, Biomarkers, Adverse Events, Regulatory Submission",False,False,False,False
125752_S3_M5_CRF_mrna-1273-p301-us3412151.pdf,COVID-19 Vaccine mRNA-1273 Clinical Trial Report,2022,https://drive.google.com/file/d/1IyLGTXZASVbQlxUanB2m4iu27lF0srRz/view?usp=drivesdk,md-production-110124,PDF,2,M5,Clinical Trial Report,,"mRNA-1273, Biomedical Research, Immunogenicity, Infectious Disease, Efficacy, Clinical Trial, Public Health, Pharmaceutical, Moderna, Regulatory, CBER, Vaccine, FDA, Safety, Adverse Events, Immunology, COVID-19",False,False,False,False
125752_S3_M5_CRF_mrna-1273-p301-us3302455.pdf,mRNA-1273-P301 Completion Guidelines,09 Jun 2021,https://drive.google.com/file/d/1LYeM7jZuWGgE5oNLs55Xhj_S_lcVS6BU/view?usp=drivesdk,md-production-110124,PDF,2712,M5,Clinical Trial Form,KC Joubran,"mRNA-1273, visit data, EAB, Keystone VitaLink Research, CBER, demographics, FDA, clinical trial, participant creation, Spartanburg, screening, participant enrollment, production release, PPDS, informed consent, US3302455, COVID-19",False,False,False,False
125752_S3_M5_CRF_mrna-1273-p301-us3412030.pdf,mRNA-1273 Phase 3 Clinical Trial Report,2022,https://drive.google.com/file/d/1GogmbhbboAkVWUdefb7AzRkGjUOFCZp9/view?usp=drivesdk,md-production-110124,PDF,2,M5,Clinical Trial Report,,"mRNA-1273, FDA Submission, Immunogenicity, Pandemic Response, Efficacy, Public Health, Moderna, Safety, CBER, Vaccine, Regulatory Approval, Adverse Events, Pharmaceutical Research, Medical Innovation, Phase 3 Clinical Trial, Clinical Trial Data, COVID-19",False,False,False,False
125752_S3_M5_CRF_mrna-1273-p301-us3302327.pdf,mRNA-1273-P301 Completion Guidelines,2021-08-11,https://drive.google.com/file/d/1bUgkSyq-szcdkq-df_Ch2j0ZAyAtQRbO/view?usp=drivesdk,md-production-110124,PDF,1731,M5,clinical trial form,KC Joubran,"mRNA-1273, visit data, participant data, screen fail, Keystone VitaLink Research, enrollment, CBER, protocol amendment, demographics, FDA, clinical trial, participant creation, Spartanburg, screening form, Moderna, PPDS, informed consent",False,False,False,False
125752_S3_M5_CRF_mrna-1273-p301-us3512193.pdf,mRNA-1273 Phase 3 Clinical Trial Report,2022,https://drive.google.com/file/d/1vL9IfoXKe6PNH3VobSpYCgJLbGzMYkeh/view?usp=drivesdk,md-production-110124,PDF,2,M5,Clinical Trial Report,,"mRNA-1273, FDA Submission, Immunogenicity, Pandemic Response, Efficacy, Public Health, Moderna, Safety, CBER, Vaccine, Medical Countermeasures, Adverse Events, Pharmaceutical Research, Regulatory Filings, Phase 3 Clinical Trial, Clinical Trial Data, COVID-19",False,False,False,False
125752_S3_M5_CRF_mrna-1273-p301-us3362029.pdf,mRNA-1273 (Moderna COVID-19 Vaccine) Clinical Study Report,2022,https://drive.google.com/file/d/1KySRjaj9I_ysKFWm-9xtandNEs15zVZn/view?usp=drivesdk,md-production-110124,PDF,2,M5,Clinical Study Report,,"mRNA-1273, Immunogenicity, Pandemic Response, Biomedical Research, Clinical Study Report, Vaccine Development, Vaccine Efficacy, Vaccine Safety, Public Health, CBER, FDA, Vaccine Approval, Adverse Events, Regulatory Submission, Moderna COVID-19 Vaccine, Vaccine Trials, Pharmaceutical Research",False,False,False,False
FDA-CBER-2022-1614-2283118-2313120_125752_S3_M5_mrna-1273-p301-A_D_advs.xpt,mRNA-1273 Phase 3 Study Data,2022,https://drive.google.com/file/d/1olSz7MXs9ViEJLYZx5PDA8jLahKZcVqd/view?usp=drivesdk,md-production-110124,XPT,0,M5,Clinical Study Data,mRNA-1273,"Biostatistics, Epidemiology, Immunogenicity, Efficacy, Pharmacodynamics, Clinical Trial, Phase 3, Moderna, Safety, CBER, Pharmacokinetics, FDA, Biomarkers, Adverse Events, Regulatory Submission, mRNA Vaccine, COVID-19",False,False,False,False
125752_S10_M5_CRF_mrna-1273-p301-us3362166.pdf,mRNA-1273-P301 Participant Creation Data,2021-04-24,https://drive.google.com/file/d/1OSwlsNyRLkPn1yR-Cjtwo5OQBcOzVSSI/view?usp=drivesdk,md-production-110124,PDF,2722,M5,Clinical trial record,KC Joubran,"mRNA-1273, Meridian Clinical Research, visit date, clinic visit, COVID-19 vaccine, participant data, protocol amendment, enrollment, CBER, home visit, FDA, demographics, clinical trial, participant ID, Baton Rouge, screening form, informed consent, Louisiana",False,False,False,False
125752_S3_M5_CRF_mrna-1273-p301-us3412224.pdf,COVID-19 mRNA Vaccine Candidate BNT162b2,2022,https://drive.google.com/file/d/1fWiOYPe0p7lr1PQB8uGDvFAsjoPivXX6/view?usp=drivesdk,md-production-110124,PDF,2,M5,Research Report,"FDA, CBER","Biotechnology, Infectious Disease, Pharmaceutical Development, Public Health, Vaccine Safety, Vaccine Efficacy, Clinical Research, Regulatory Affairs, BNT162b2, CBER, FDA, Vaccine Approval, mRNA Vaccine, Vaccine Trials, Vaccine Candidate, Immunology, COVID-19",False,False,False,False
125752_S10_M5_CRF_mrna-1273-p301-us3582154.pdf,mRNA-1273-P301 Participant Creation Data,2021-02-13,https://drive.google.com/file/d/15XQjVpvGdi9cfzzSg0EzfZwi2f0UIDX3/view?usp=drivesdk,md-production-110124,PDF,2333,M5,Clinical trial data,KC Joubran,"mRNA-1273, visit data, vaccine, participant data, Seattle, Moderna, enrollment, Kaiser Permanente, FDA, demographics, clinical trial, participant ID, production release, screening, US3582154, informed consent, COVID-19",False,False,False,False
125752_S10_M5_CRF_mrna-1273-p301-us3362210.pdf,mRNA-1273-P301 Participant Creation Data,2021-04-24,https://drive.google.com/file/d/1MnVU301Jgu27eAl23ALP-JF3b7eAcaeI/view?usp=drivesdk,md-production-110124,PDF,2695,M5,Clinical trial data,KC Joubran,"mRNA-1273, Meridian Clinical Research, COVID-19 vaccine, participant data, screen fail, Moderna, enrollment, CBER, protocol amendment, FDA, demographics, clinical trial, participant ID, Baton Rouge, screening, informed consent, Louisiana",False,False,False,False
125752_S10_M5_CRF_mrna-1273-p301-us3412022.pdf,mRNA-1273-P301 Participant Creation Data,09 Jun 2021,https://drive.google.com/file/d/1mmkxmfeQG0peohJTlH-rPDnlnFUZQESZ/view?usp=drivesdk,md-production-110124,PDF,3571,M5,Clinical Trial Data,KC Joubran,"mRNA-1273, Demographics, Protocol Amendment, Participant Creation, Screen Fail, Clinical Trial, Moderna, Informed Consent, CBER, Participant Data, FDA, Vaccine, New Horizons Clinical Research, COVID-19, Enrollment, US3412022, Screening Form",False,False,False,False
125752_S10_M5_CRF_mrna-1273-p301-us3412208.pdf,mRNA-1273-P301 Participant Creation Data,11 Aug 2021,https://drive.google.com/file/d/1G6g5bfE1UG9m1U1Qg01yeX_t8bDr0LE8/view?usp=drivesdk,md-production-110124,PDF,2835,M5,Clinical Research Form,KC Joubran,"mRNA-1273, Demographics, P301, Participant Creation, Clinical Trial, Clinical Research, Pharmaceutical, Medical Research, Moderna, Informed Consent, CBER, Participant Data, FDA, Vaccine Trial, Screening, Enrollment, COVID-19",False,False,False,False
125752_S3_M5_CRF_mrna-1273-p301-us3502142.pdf,mRNA-1273 Phase 3 Clinical Trial Report,2022,https://drive.google.com/file/d/1ZKl1nrE7aKfRVe82Wr792Rx4sGih9ToP/view?usp=drivesdk,md-production-110124,PDF,2,M5,Clinical Trial Report,,"mRNA-1273, FDA Submission, Epidemiology, Infectious Disease, Vaccine Development, Vaccine Efficacy, Vaccine Safety, Public Health, COVID-19 Vaccine, Regulatory Affairs, Moderna, Regulatory Approval, Biomedical Engineering, Pharmaceutical Research, Phase 3 Clinical Trial, Clinical Trial Data, Immunology",False,False,False,False
125752_S3_M5_CRF_mrna-1273-p301-us3362166.pdf,mRNA-1273 Phase 3 Clinical Trial Report,2022,https://drive.google.com/file/d/1Bf9_jL1J5UJRB6oJnYjY6z9F8VzDFDmY/view?usp=drivesdk,md-production-110124,PDF,2,M5,Clinical Trial Report,,"mRNA-1273, Immunogenicity, Pandemic Response, Efficacy, Public Health, Moderna, Safety, CBER, Vaccine, FDA, Medical Innovation, Adverse Events, Regulatory Submission, Pharmaceutical Research, Clinical Trial Report, Phase 3 Clinical Trial, COVID-19",False,False,False,False
125752_S3_M5_CRF_mrna-1273-p301-us3412153.pdf,COVID-19 mRNA Vaccine Candidate BNT162b2,2022,https://drive.google.com/file/d/1p9zPW_L96SoATp0CsULysr6xKiu4PWdX/view?usp=drivesdk,md-production-110124,PDF,2,M5,Research Report,FDA,"Immunogenicity, Pandemic Response, Biomedical Research, Efficacy, Infectious Disease, Pharmaceutical Development, Public Health, Pharmaceutical Regulation, Clinical Research, BNT162b2, Safety, FDA, Regulatory Submission, mRNA Vaccine, Vaccine Technology, Vaccine Candidate, COVID-19",False,False,False,False
125752_S3_M5_CRF_mrna-1273-p301-us3412184.pdf,mRNA-1273 Phase 3 Clinical Trial Report,2022,https://drive.google.com/file/d/1GT_pQCLa2jrAXMLqfyBUvTdNcjin-bVU/view?usp=drivesdk,md-production-110124,PDF,2,M5,Clinical Trial Report,,"mRNA-1273, Immunogenicity, Pandemic Response, Efficacy, Public Health, Moderna, Safety, CBER, Vaccine, FDA, Medical Innovation, Adverse Events, Regulatory Submission, Pharmaceutical Research, Clinical Trial Report, Phase 3 Clinical Trial, COVID-19",False,False,False,False
125752_S10_M5_CRF_mrna-1273-p301-us3512036.pdf,mRNA-1273-P301 Participant Creation Data,12 Feb 2021,https://drive.google.com/file/d/1TgLj7MHvL8PH1vQYTIaIA4-5X2bNN-CP/view?usp=drivesdk,md-production-110124,PDF,2637,M5,Clinical Trial Form,KC Joubran,"mRNA-1273, Demographics, Visit Date, Race, Completion Guidelines, Sex, Clinical Trial, Ethnicity, Participant ID, Age, Jacksonville Center for Clinical Research, Informed Consent, CBER, Participant Enrollment, FDA, COVID-19, Screening Form",False,False,False,False
125752_S3_M5_CRF_mrna-1273-p301-us3582154.pdf,Placeholder Document - Replace FDA-CBER-2022-1614-2158674,2022,https://drive.google.com/file/d/1jnjgXHkLizY1-_oI8_gA3y_4kA-w8y48/view?usp=drivesdk,md-production-110124,PDF,2,M5,Placeholder,,"1614, p301, 2158675, 2022, fda, document, replacement, mrna, 1273, placeholder, us3582154, clinical, form, cber, research, pdf, 2158674",False,False,False,False
125752_S3_M5_CRF_mrna-1273-p301-us3362210.pdf,mRNA-1273 (Moderna COVID-19 Vaccine) Clinical Study Report,2022,https://drive.google.com/file/d/1_omuavdshNvBrMEoY5OQtq0n1Pp1qtb0/view?usp=drivesdk,md-production-110124,PDF,2,M5,Clinical Study Report,,"mRNA-1273, FDA Submission, Immunogenicity, Pandemic Response, Clinical Study Report, Vaccine Development, Vaccine Efficacy, Vaccine Safety, Public Health, Medical Research, Regulatory Approval, Vaccine Deployment, Adverse Events, Pharmaceutical Regulations, Moderna COVID-19 Vaccine, Vaccine Trials, Pharmaceutical Research",False,False,False,False
125752_S3_M5_CRF_mrna-1273-p301-us3412208.pdf,mRNA-1273 Phase 3 Clinical Trial Report,2022,https://drive.google.com/file/d/1lexR-6Ie_FW9Eav9GeR_AaB0BAX7_Cg6/view?usp=drivesdk,md-production-110124,PDF,2,M5,Clinical Trial Report,,"mRNA-1273, Immunogenicity, Pandemic Response, Efficacy, Public Health, Moderna, Safety, CBER, Vaccine, FDA, Medical Innovation, Adverse Events, Regulatory Submission, Pharmaceutical Research, Clinical Trial Report, Phase 3 Clinical Trial, COVID-19",False,False,False,False
125752_S3_M5_CRF_mrna-1273-p301-us3512036.pdf,mRNA-1273 Phase 3 Clinical Trial Report,2022,https://drive.google.com/file/d/1vOhLsqJIWqSAmd3VyVT5lR0VoNKf4Vme/view?usp=drivesdk,md-production-110124,PDF,2,M5,Clinical Trial Report,,"mRNA-1273, Immunogenicity, Pandemic Response, Efficacy, Public Health, Moderna, Safety, CBER, Vaccine, FDA, Medical Innovation, Adverse Events, Regulatory Submission, Pharmaceutical Research, Clinical Trial Report, Phase 3 Clinical Trial, COVID-19",False,False,False,False
125752_S3_M5_CRF_mrna-1273-p301-us3412022.pdf,COVID-19 mRNA Vaccine Candidate BNT162b2,2022-03-14,https://drive.google.com/file/d/1ktgM0h9XEMYy5uCiAP8ADZ4XNV_ZMudy/view?usp=drivesdk,md-production-110124,PDF,2,M5,Research Report,"FDA, CBER","Immunogenicity, Pandemic Response, Biotechnology, Efficacy, Infectious Disease, Clinical Trial, Vaccine Development, Public Health, BNT162b2, Safety, CBER, FDA, Vaccine Approval, Regulatory Submission, mRNA Vaccine, Pharmaceutical Research, COVID-19",False,False,False,False
125752_S10_M5_CRF_mrna-1273-p301-us3412224.pdf,mRNA-1273-P301 Participant Creation Data,2021-08-11,https://drive.google.com/file/d/1sY7vIMJgUgAqv9qZz0V1DvICdRYpxWqn/view?usp=drivesdk,md-production-110124,PDF,3417,M5,Clinical Research Form,KC Joubran,"mRNA-1273, visit date, COVID-19, vaccine trial, participant data, protocol amendment, enrollment, CBER, FDA, demographics, participant ID, production release, participant creation, screening form, informed consent, New Horizons Clinical Research, clinical research",False,False,False,False
125752_S10_M5_CRF_mrna-1273-p301-us3412184.pdf,mRNA-1273-P301 Participant Creation Data,09 Jun 2021,https://drive.google.com/file/d/1uUSZ89r3mfJdct3OqHthodQMWW1fUJ21/view?usp=drivesdk,md-production-110124,PDF,2074,M5,Clinical Trial Data,KC Joubran,"mRNA-1273, Demographics, Participant Creation, Clinical Trial, US3412184, Phase 3, Moderna, Informed Consent, CBER, Participant Data, FDA, Vaccine, Adverse Events, COVID-19, Enrollment, New Horizons Clinical Research, Screening Form",False,False,False,False
125752_S10_M5_CRF_mrna-1273-p301-us3412153.pdf,mRNA-1273-P301 Participant Creation Data,09 Jun 2021,https://drive.google.com/file/d/11QnuJO4D8EwmPyDJAxUF2GYUWf-H1zSz/view?usp=drivesdk,md-production-110124,PDF,1896,M5,Clinical Research Form,KC Joubran,"mRNA-1273, Demographics, P301, Participant Creation, Protocol Amendment, Screen Fail, Clinical Trial, Participant ID, Clinical Research, Moderna, Informed Consent, CBER, Vaccine, FDA, Screening, Enrollment, COVID-19",False,False,False,False
125752_S10_M5_CRF_mrna-1273-p301-us3502142.pdf,mRNA-1273-P301 Participant Creation Data,2021-06-10,https://drive.google.com/file/d/1ttRUyWCX_BE15cVLn5Jpk_10pjOs5lEh/view?usp=drivesdk,md-production-110124,PDF,2330,M5,Clinical trial data,KC Joubran,"mRNA-1273, visit date, COVID-19 vaccine, race, ethnicity, participant data, screen fail, PRODUCTION RELEASE, enrollment, CBER, protocol amendment, demographics, FDA, clinical trial, participant ID, screening, University of Colorado Hospital, informed consent",False,False,False,False
125752_S10_M5_CRF_mrna-1273-p301-us3362029.pdf,mRNA-1273-P301 Participant Creation Data,2021-04-23,https://drive.google.com/file/d/1Vc3FhnKkTM0pr6LI8encmVsfyRHzYtAl/view?usp=drivesdk,md-production-110124,PDF,3057,M5,Clinical trial data,KC Joubran,"mRNA-1273, Meridian Clinical Research, COVID-19 vaccine, participant data, Moderna, enrollment, CBER, FDA, demographics, clinical trial, participant ID, Baton Rouge, screening form, production release, PPDS, informed consent, Louisiana",False,False,False,False
125752_S10_M5_CRF_mrna-1273-p301-us3412151.pdf,mRNA-1273-P301 Participant Creation Data,09 Jun 2021,https://drive.google.com/file/d/1QtMcXWpAeiTI-mlEJ4SUgwOJhD9Kque0/view?usp=drivesdk,md-production-110124,PDF,1453,M5,Clinical Research Form,KC Joubran,"mRNA-1273, visit date, clinic visit, participant data, date of birth, screen fail, protocol amendment, enrollment, CBER, home visit, FDA, demographics, participant ID, age, screening form, informed consent, clinical research",False,False,False,False
125752_S10_M5_CRF_mrna-1273-p301-us3512193.pdf,mRNA-1273-P301 Participant Creation Data,2021-06-10,https://drive.google.com/file/d/1Tu6xf5ceQLEyzCzcOL4xcdft9RvPUBgE/view?usp=drivesdk,md-production-110124,PDF,3166,M5,Clinical trial record,KC Joubran,"mRNA-1273, electronic data capture, vaccine, participant data, screen fail, protocol amendment, enrollment, CBER, Jacksonville Center for Clinical Research, FDA, demographics, clinical trial, participant ID, production release, screening, informed consent, COVID-19",False,False,False,False
125752_S3_M5_CRF_mrna-1273-p301-us3412126.pdf,mRNA-1273 Phase 3 Clinical Trial Report,2022,https://drive.google.com/file/d/1AXX3x0EsXgssVIgHNk9MsQNqn19fvBXR/view?usp=drivesdk,md-production-110124,PDF,2,M5,Clinical Trial Report,,"mRNA-1273, FDA Submission, Immunogenicity, Pandemic Response, Efficacy, Public Health, Moderna, Safety, CBER, Vaccine, Medical Innovation, Adverse Events, Regulatory Submission, Pharmaceutical Research, Clinical Trial Report, Phase 3 Clinical Trial, COVID-19",False,False,False,False
125752_S10_M5_CRF_mrna-1273-p301-us3412030.pdf,mRNA-1273-P301 Participant Creation Data,2021-06-09,https://drive.google.com/file/d/1kbAeNKXmVBhT5Nd5mVymy40qOSkDphq4/view?usp=drivesdk,md-production-110124,PDF,2297,M5,clinical research form,KC Joubran,"mRNA-1273, visit date, race, ethnicity, participant data, screen fail, protocol amendment, enrollment, CBER, age, FDA, demographics, clinical trial, participant ID, screening form, sex, informed consent, New Horizons Clinical Research",False,False,False,False
125752_S10_M5_CRF_mrna-1273-p301-us3412296.pdf,mRNA-1273-P301 Participant Creation Data,2021-06-09,https://drive.google.com/file/d/1ajvA-RanAtoxGmqBmlNJgd9D3KcIVOKI/view?usp=drivesdk,md-production-110124,PDF,2278,M5,Clinical trial data,KC Joubran,"mRNA-1273, visit date, race, ethnicity, participant data, screen fail, protocol amendment, enrollment, CBER, age, FDA, demographics, clinical trial, participant ID, screening, sex, informed consent",False,False,False,False
125752_S10_M5_CRF_mrna-1273-p301-us3412240.pdf,mRNA-1273-P301 Participant Creation Data,2021-06-09,https://drive.google.com/file/d/1gUYGQ_oBKRJVb5oDiPpXWtWfkxPK9LeZ/view?usp=drivesdk,md-production-110124,PDF,3457,M5,Clinical Research Form,KC Joubran,"mRNA-1273, COVID-19, P301, vaccine, participant data, screen fail, protocol amendment, enrollment, CBER, Moderna, FDA, demographics, clinical trial, participant creation, screening, informed consent, clinical research",False,False,False,False
125752_S10_M5_CRF_mrna-1273-p301-us3362099.pdf,mRNA-1273-P301 Participant Creation Data,2021-04-24,https://drive.google.com/file/d/1OzyYrcqkJDDKvm5qACWqBe6SQUJCYScY/view?usp=drivesdk,md-production-110124,PDF,1956,M5,Clinical trial record,KC Joubran,"mRNA-1273, Meridian Clinical Research, COVID-19 vaccine, participant data, screen fail, Moderna, enrollment, CBER, protocol amendment, FDA, demographics, clinical trial, participant ID, Baton Rouge, screening form, informed consent, Louisiana",False,False,False,False
125752_S10_M5_CRF_mrna-1273-p301-us3412081.pdf,mRNA-1273-P301 Participant Creation Data,2021-06-09,https://drive.google.com/file/d/15rICXR0Xzt0ovCTHrMmO_4CAulujfQn-/view?usp=drivesdk,md-production-110124,PDF,3901,M5,Clinical research form,KC Joubran,"mRNA-1273, participant data, vaccine, screen fail, protocol amendment, enrollment, CBER, FDA, demographics, clinical trial, participant ID, production release, screening, informed consent, clinical research form, New Horizons Clinical Research, COVID-19",False,False,False,False
125752_S3_M5_CRF_mrna-1273-p301-us3302379.pdf,mRNA-1273-P301 Completion Guidelines,09 Jun 2021,https://drive.google.com/file/d/1AZZVrKu3B35rtJ4upo_8X9uslEmx1WHD/view?usp=drivesdk,md-production-110124,PDF,3650,M5,Clinical trial form,KC Joubran,"mRNA-1273, US3302379, visit data, vaccine, Keystone VitaLink Research, Moderna, CBER, demographics, FDA, clinical trial, participant creation, Spartanburg, screening, participant enrollment, PPDS, informed consent, COVID-19",False,False,False,False
125752_S10_M5_CRF_mrna-1273-p301-us3512042.pdf,mRNA-1273-P301 Participant Creation Data,2021-06-10,https://drive.google.com/file/d/12eQHBEFYVqOWukwdcZTf3Yu_suqUmGYv/view?usp=drivesdk,md-production-110124,PDF,1221,M5,Clinical research form,KC Joubran,"mRNA-1273, electronic case report form, vaccine, participant data, screen fail, protocol amendment, enrollment, CBER, Jacksonville Center for Clinical Research, FDA, demographics, clinical trial, participant ID, production release, screening, informed consent, COVID-19",False,False,False,False
125752_S3_M5_CRF_mrna-1273-p301-us3302345.pdf,mRNA-1273-P301 Completion Guidelines,2021-08-11,https://drive.google.com/file/d/1trO2Ik1pyBywAKc9zcNNGR4gwgPQWag-/view?usp=drivesdk,md-production-110124,PDF,1167,M5,clinical trial form,KC Joubran,"mRNA-1273, visit date, vaccine, screen fail, Keystone VitaLink Research, enrollment, CBER, protocol amendment, demographics, FDA, clinical trial, participant creation, Spartanburg, screening form, participant ID, PPDS, informed consent",False,False,False,False
125752_S3_M5_CRF_mrna-1273-p301-us3362116.pdf,mRNA-1273 (Moderna COVID-19 Vaccine) Clinical Study Report,2023-06-23,https://drive.google.com/file/d/1gff9_Rigxn-VJAl2OW0XTOBw4HYoeIlb/view?usp=drivesdk,md-production-110124,PDF,2,M5,Clinical Study Report,,"mRNA-1273, Immunogenicity, Pandemic Response, Biomedical Research, Infectious Disease, Clinical Study Report, Vaccine Development, Vaccine Efficacy, Vaccine Safety, Public Health, Pharmaceutical Regulation, Adverse Events, Regulatory Submission, Moderna COVID-19 Vaccine, Vaccine Trials, Pharmaceutical Research, FDA-CBER-2022-1614",False,False,False,False
125752_S3_M5_CRF_mrna-1273-p301-us3412127.pdf,mRNA-1273 COVID-19 Vaccine Clinical Trial,2022,https://drive.google.com/file/d/1ESBRWpz-OE_tNwL0bNMM-kuvi-8vhJFD/view?usp=drivesdk,md-production-110124,PDF,2,M5,Clinical Trial Report,,"mRNA-1273, pandemic response, medical research, regulatory submission, pharmaceutical industry, COVID-19 vaccine, immunogenicity, infectious disease, vaccine efficacy, adverse events, public health, CBER, FDA, clinical trial, biotechnology, vaccine development, vaccine safety",False,False,False,False
125752_S3_M5_CRF_mrna-1273-p301-us3412125.pdf,mRNA-1273 Phase 3 Clinical Trial Report,2022,https://drive.google.com/file/d/1LJBRkBZAjT5ztm4PszNOlcXti0pLkvlV/view?usp=drivesdk,md-production-110124,PDF,2,M5,Clinical Trial Report,,"mRNA-1273, FDA Submission, Immunogenicity, Pandemic Response, Efficacy, Public Health, Moderna, Safety, CBER, Vaccine, Regulatory Approval, Adverse Events, Pharmaceutical Research, Medical Innovation, Phase 3 Clinical Trial, Clinical Trial Data, COVID-19",False,False,False,False
125752_S10_M5_CRF_mrna-1273-p301-us3362071.pdf,mRNA-1273-P301 Participant Creation Data,2021-04-24,https://drive.google.com/file/d/1wqcrh4-lGnIbSCm7z0deB2a1OVC1CtZz/view?usp=drivesdk,md-production-110124,PDF,3191,M5,Clinical trial record,KC Joubran,"mRNA-1273, Meridian Clinical Research, COVID-19 vaccine, participant data, screen fail, Moderna, enrollment, CBER, protocol amendment, FDA, demographics, clinical trial, participant ID, Baton Rouge, screening form, informed consent, Louisiana",False,False,False,False
125752_S10_M5_CRF_mrna-1273-p301-us3502125.pdf,mRNA-1273-P301 Participant Creation Data,10 Jun 2021,https://drive.google.com/file/d/1Uj_HDUl1H9ZEYEuHYAU6YwApKXW-Gr54/view?usp=drivesdk,md-production-110124,PDF,1912,M5,Clinical Trial Form,KC Joubran,"mRNA-1273, COVID-19 vaccine, race, ethnicity, participant data, screen fail, protocol amendment, enrollment, CBER, age, demographics, FDA, clinical trial, participant ID, screening form, University of Colorado Hospital, sex, informed consent",False,False,False,False
125752_S10_M5_CRF_mrna-1273-p301-us3502045.pdf,mRNA-1273-P301 Completion Guidelines,10 Jun 2021,https://drive.google.com/file/d/1XWrJUpIWb9fdmtj9RaDl3ERz3yO1xJn8/view?usp=drivesdk,md-production-110124,PDF,2696,M5,Clinical Trial Form,KC Joubran,"mRNA-1273, Demographics, Visit Date, Race, Sex, Protocol Amendment, Clinical Trial, Ethnicity, Participant ID, Age, Informed Consent, CBER, Participant Enrollment, FDA, University of Colorado Hospital, COVID-19, Screening Form",False,False,False,False
125752_S10_M5_CRF_mrna-1273-p301-us3412243.pdf,mRNA-1273-P301 Participant Creation Data,09 Jun 2021,https://drive.google.com/file/d/1WagO119zLL62u9nwb108ZyItQWxhbfU8/view?usp=drivesdk,md-production-110124,PDF,2044,M5,Clinical Research Form,KC Joubran,"mRNA-1273, Demographics, P301, Participant Creation, Protocol Amendment, Screen Fail, EAB, Participant ID, Clinical Research, PRODUCTION RELEASE, Informed Consent, CBER, Vaccine, FDA, Screening, Enrollment, New Horizons Clinical Research",False,False,False,False
FDA-CBER-2022-1614-2232508-2235675_125752_S3_M5_mrna-1273-p301_A_D_adarp7d.xpt,Unsupported File Type,Unknown,https://drive.google.com/file/d/1Z_81FyxEailPEsF9djyzjnSGh-JCQs_D/view?usp=drivesdk,md-production-110124,XPT,0,M5,Data File,,"regulatory, data file, pharmaceutical, BLA, vaccine, medical technology, Moderna, public health, CBER, clinical research, FDA, clinical trial, biomedical, drug development, mRNA, bioinformatics, COVID-19",False,False,False,False
125752_S3_M5_CRF_mrna-1273-p301-us3412246.pdf,mRNA-1273 (Moderna COVID-19 Vaccine) Clinical Study Report,2022,https://drive.google.com/file/d/18iQXn8dFAeShEWOpuHhe7tcbQZwOppo8/view?usp=drivesdk,md-production-110124,PDF,2,M5,Clinical Study Report,,"mRNA-1273, FDA Submission, Immunogenicity, Pandemic Response, Infectious Disease, Clinical Study Report, Vaccine Development, Vaccine Efficacy, Vaccine Safety, Public Health, Clinical Trials, Biomedical Science, Regulatory Approval, Adverse Events, Pharmaceutical Regulations, Moderna COVID-19 Vaccine, Pharmaceutical Research",False,False,False,False
125752_S10_M5_CRF_mrna-1273-p301-us3512082.pdf,Participant Creation Data for mRNA-1273-P301 Clinical Trial,2021-06-10,https://drive.google.com/file/d/1-EZdiEd6hZ6O-z7cRF3iBTb--HOBmHTl/view?usp=drivesdk,md-production-110124,PDF,3133,M5,Clinical Trial Data,KC Joubran,"mRNA-1273, data generation, COVID-19 vaccine, participant data, screen fail, Jacksonville Center for Clinical Research, enrollment, CBER, protocol amendment, demographics, FDA, clinical trial, participant ID, production release, screening form, time stamp, informed consent",False,False,False,False
125752_S10_M5_CRF_mrna-1273-p301-us3412337.pdf,mRNA-1273-P301 Participant Creation Data,09 Jun 2021,https://drive.google.com/file/d/1NCvOMtPtk6xoYjWcQM0KQ57p-aXbGaXt/view?usp=drivesdk,md-production-110124,PDF,2126,M5,Clinical Research Form,KC Joubran,"mRNA-1273, Demographics, P301, Participant Creation, Clinical Trial, Clinical Research, Regulatory Compliance, Moderna, Informed Consent, CBER, Vaccine, FDA, Participant Data, Screening, Medical Records, Enrollment, COVID-19",False,False,False,False
125752_S3_M5_CRF_mrna-1273-p301-us3412118.pdf,mRNA-1273 Phase 3 Clinical Trial Report,2022,https://drive.google.com/file/d/1vUNlTHt6FKRvdEpRE7SZQsNa_X59dYNG/view?usp=drivesdk,md-production-110124,PDF,2,M5,Clinical Trial Report,,"mRNA-1273, Immunogenicity, Pandemic Response, Efficacy, Public Health, Moderna, Safety, CBER, Vaccine, FDA, Medical Innovation, Adverse Events, Regulatory Submission, Pharmaceutical Research, Clinical Trial Report, Phase 3 Clinical Trial, COVID-19",False,False,False,False
125752_S10_M5_CRF_mrna-1273-p301-us3412125.pdf,mRNA-1273-P301 Participant Creation Data,09 Jun 2021,https://drive.google.com/file/d/1qsEsjgkqbaKPu5WrJxLnmuWDJPMGAS9o/view?usp=drivesdk,md-production-110124,PDF,4014,M5,Clinical Research Form,KC Joubran,"mRNA-1273, Demographics, P301, Participant Creation, Protocol Amendment, Clinical Trial, Participant ID, Clinical Research, PRODUCTION RELEASE, Informed Consent, CBER, Vaccine, FDA, Screening, Enrollment, New Horizons Clinical Research, COVID-19",False,False,False,False
125752_S3_M5_CRF_mrna-1273-p301-us3502125.pdf,mRNA-1273 Phase 3 Clinical Trial Report,2022,https://drive.google.com/file/d/1zeHU_DE-SBzEpCwFAVoJGc5vGZuTro8X/view?usp=drivesdk,md-production-110124,PDF,2,M5,Clinical Trial Report,,"mRNA-1273, FDA Submission, Immunogenicity, Pandemic Response, Efficacy, Public Health, Moderna, Safety, CBER, Vaccine, Medical Innovation, Adverse Events, Regulatory Submission, Pharmaceutical Research, Clinical Trial Report, Phase 3 Clinical Trial, COVID-19",False,False,False,False
125752_S3_M5_CRF_mrna-1273-p301-us3302395.pdf,mRNA-1273-P301 Completion Guidelines,09 Jun 2021,https://drive.google.com/file/d/1bxWWZdH9o0sGI2cxWdhKaZmV5s2bzujb/view?usp=drivesdk,md-production-110124,PDF,1180,M5,Clinical trial form,KC Joubran,"mRNA-1273, visit date, COVID-19 vaccine, race, ethnicity, Keystone VitaLink Research, CBER, demographics, FDA, clinical trial, production release, Spartanburg, screening form, participant enrollment, participant ID, PPDS, informed consent",False,False,False,False
125752_S10_M5_CRF_mrna-1273-p301-us3412246.pdf,mRNA-1273-P301 Participant Creation Data,09 Jun 2021,https://drive.google.com/file/d/1DbSxVBN9keMaYecyr5pSkUWIyY3nVZoB/view?usp=drivesdk,md-production-110124,PDF,2123,M5,Clinical Research Form,KC Joubran,"mRNA-1273, Demographics, P301, Participant Creation, Protocol Amendment, Screen Fail, Clinical Trial, Participant ID, Clinical Research, Participant Creation Data, PRODUCTION RELEASE, Informed Consent, CBER, FDA, Screening, Enrollment, New Horizons Clinical Research",False,False,False,False
125752_S3_M5_CRF_mrna-1273-p301-us3502045.pdf,mRNA-1273 Phase 3 Clinical Trial Report,2022,https://drive.google.com/file/d/1nYxMVtQkpsrgFwKJS8Cz3FPJS1pJza_w/view?usp=drivesdk,md-production-110124,PDF,2,M5,Clinical Trial Report,,"mRNA-1273, Immunogenicity, Pandemic Response, Efficacy, Public Health, Moderna, Safety, CBER, Vaccine, FDA, Medical Innovation, Adverse Events, Regulatory Submission, Pharmaceutical Research, Clinical Trial Report, Phase 3 Clinical Trial, COVID-19",False,False,False,False
125752_S3_M5_CRF_mrna-1273-p301-us3362071.pdf,mRNA-1273 Phase 3 Clinical Trial Report,2022,https://drive.google.com/file/d/1zrY-Yi7lVwZR77awMgYW0Vs5mmw096sl/view?usp=drivesdk,md-production-110124,PDF,2,M5,Clinical Trial Report,,"mRNA-1273, Immunogenicity, Pandemic Response, Efficacy, Public Health, Moderna, Safety, CBER, Vaccine, FDA, Medical Innovation, Adverse Events, Regulatory Submission, Pharmaceutical Research, Clinical Trial Report, Phase 3 Clinical Trial, COVID-19",False,False,False,False
125752_S3_M5_CRF_mrna-1273-p301-us3512082.pdf,mRNA-1273 Phase 3 Clinical Trial Report,2022,https://drive.google.com/file/d/1CCK3I9CVbAhxT9Cq5hhW6J_NSQQKEY04/view?usp=drivesdk,md-production-110124,PDF,2,M5,Clinical Trial Report,,"mRNA-1273, FDA Submission, Immunogenicity, Pandemic Response, Efficacy, Public Health, Moderna, Safety, CBER, Vaccine, Medical Innovation, Adverse Events, Regulatory Submission, Pharmaceutical Research, Clinical Trial Report, Phase 3 Clinical Trial, COVID-19",False,False,False,False
125752_S3_M5_CRF_mrna-1273-p301-us3412337.pdf,mRNA-1273 Phase 3 Clinical Trial Report,2022,https://drive.google.com/file/d/1Z8Ws7SwF7KtvlOtjHm24U4PzL5G-mdjT/view?usp=drivesdk,md-production-110124,PDF,2,M5,Clinical Trial Report,,"mRNA-1273, Immunogenicity, Pandemic Response, Efficacy, Public Health, Moderna, Safety, CBER, Vaccine, FDA, Medical Innovation, Adverse Events, Regulatory Submission, Pharmaceutical Research, Clinical Trial Report, Phase 3 Clinical Trial, COVID-19",False,False,False,False
125752_S10_M5_CRF_mrna-1273-p301-us3412118.pdf,mRNA-1273-P301 Participant Creation Data,09 Jun 2021,https://drive.google.com/file/d/1Kn0Vv0U9TvFAOG2B4oN0pUJQvZmI_yn5/view?usp=drivesdk,md-production-110124,PDF,2426,M5,Clinical Research Form,KC Joubran,"mRNA-1273, Demographics, P301, Participant Creation, Clinical Trial, Clinical Research, Regulatory Compliance, Moderna, Informed Consent, CBER, Vaccine, FDA, Participant Data, Screening, Medical Records, Enrollment, COVID-19",False,False,False,False
125752_S3_M5_CRF_mrna-1273-p301-us3412243.pdf,mRNA-1273 Phase 3 Clinical Trial Report,2022,https://drive.google.com/file/d/1wPz7MsYLIFGCBTkOBQ9LktH4VlNzwaMA/view?usp=drivesdk,md-production-110124,PDF,2,M5,Clinical Trial Report,,"mRNA-1273, Immunogenicity, Pandemic Response, Efficacy, Public Health, Moderna, Safety, CBER, Vaccine, FDA, Medical Innovation, Adverse Events, Regulatory Submission, Pharmaceutical Research, Clinical Trial Report, Phase 3 Clinical Trial, COVID-19",False,False,False,False
125752_S3_M5_CRF_mrna-1273-p301-us3512042.pdf,mRNA-1273 COVID-19 Vaccine Clinical Trial Report,2022,https://drive.google.com/file/d/1LqAxRN1ubbtOfrnBgf4gVC7cczBZbmez/view?usp=drivesdk,md-production-110124,PDF,2,M5,Clinical Trial Report,,"mRNA-1273, FDA Submission, Pandemic Response, Infectious Disease, Vaccine Development, Clinical Trial, Public Health, Vaccine Efficacy, COVID-19 Vaccine, Regulatory Compliance, Vaccine Safety, Moderna, Clinical Data, Therapeutic Development, Vaccine Trials, Pharmaceutical Research, Immunology",False,False,False,False
125752_S10_M5_CRF_mrna-1273-p301-us3412126.pdf,mRNA-1273-P301 Participant Creation Data,09 Jun 2021,https://drive.google.com/file/d/1fbiJiza5aQcb_4d5_tLpDCJj2BVnYC8f/view?usp=drivesdk,md-production-110124,PDF,5052,M5,Clinical Research Form,KC Joubran,"mRNA-1273, Demographics, P301, Participant Creation, Visit Date, Race, Clinical Trial, Participant ID, Clinical Research, Moderna, Informed Consent, CBER, Vaccine, FDA, Screening, Ethnicity, Enrollment, COVID-19",False,False,False,False
125752_S3_M5_CRF_mrna-1273-p301-us3362099.pdf,mRNA-1273 (Moderna COVID-19 Vaccine) Clinical Study Report,2021-03-26,https://drive.google.com/file/d/1QpQgteKZyn1rXDPXcTj9H21p_7AcRYVg/view?usp=drivesdk,md-production-110124,PDF,2,M5,Clinical Study Report,,"mRNA-1273, FDA Submission, Immunogenicity, Pandemic Response, Clinical Study Report, Vaccine Development, Vaccine Efficacy, Vaccine Safety, Public Health, Regulatory Approval, Molecular Biology, Biomedical Engineering, Adverse Events, Pharmaceutical Regulations, Moderna COVID-19 Vaccine, Vaccine Trials, Pharmaceutical Research",False,False,False,False
125752_S3_M5_CRF_mrna-1273-p301-us3412296.pdf,COVID-19 mRNA Vaccine Candidate BNT162b2,2022,https://drive.google.com/file/d/1n897m37fy6EHpAnRPPg0VDMDiyqiexh2/view?usp=drivesdk,md-production-110124,PDF,2,M5,Research Report,"FDA, CBER","vaccine authorization, pandemic response, regulatory affairs, vaccine distribution, pharmaceutical research, vaccine development, vaccine efficacy, BNT162b2, public health, CBER, immunology, FDA, clinical trial, biotechnology, mRNA vaccine, vaccine safety, COVID-19",False,False,False,False
125752_S10_M5_CRF_mrna-1273-p301-us3362116.pdf,mRNA-1273-P301 Participant Creation Data,2021-04-24,https://drive.google.com/file/d/1c376hYR8W2D9Xlp73z-sEtO_WrA5MnPD/view?usp=drivesdk,md-production-110124,PDF,2295,M5,Clinical trial data,KC Joubran,"mRNA-1273, Meridian Clinical Research, COVID-19 vaccine, participant data, Moderna, enrollment, CBER, protocol amendment, FDA, demographics, clinical trial, participant ID, Baton Rouge, screening form, participant creation, informed consent, Louisiana",False,False,False,False
125752_S3_M5_CRF_mrna-1273-p301-us3412081.pdf,COVID-19 mRNA Vaccine Candidate BNT162b2,2022,https://drive.google.com/file/d/1Qkn2SxQKLoli3KXdcPmPGN1snkn9P-Ii/view?usp=drivesdk,md-production-110124,PDF,2,M5,Research Report,"FDA, CBER","Biomedical Research, Pharmaceutical Development, Public Health, Vaccine Safety, Vaccine Efficacy, Clinical Research, Regulatory Affairs, BNT162b2, CBER, FDA, Infectious Diseases, mRNA Vaccine, Vaccine Trials, Vaccine Manufacturing, Vaccine Candidate, Immunology, COVID-19",False,False,False,False
125752_S3_M5_CRF_mrna-1273-p301-us3412240.pdf,mRNA-1273 COVID-19 Vaccine Clinical Trial Report,2022,https://drive.google.com/file/d/1HUbqv6C3-FjGhf7D_FiOwXl9fyxB1EVz/view?usp=drivesdk,md-production-110124,PDF,2,M5,Clinical Trial Report,,"mRNA-1273, vaccine authorization, pandemic response, medical research, pharmaceutical industry, COVID-19 vaccine, regulatory affairs, data analysis, vaccine efficacy, healthcare, public health, CBER, FDA, clinical trial, vaccine development, vaccine safety, medical reporting",False,False,False,False
125752_S3_M5_CRF_mrna-1273-p301-us3302383.pdf,mRNA-1273-P301 Completion Guidelines,09 Jun 2021,https://drive.google.com/file/d/1TckO2ofmPKMkht93KtBrMQRS62OrkzZv/view?usp=drivesdk,md-production-110124,PDF,1922,M5,Clinical Trial Form,KC Joubran,"mRNA-1273, participant data, screen fail, Keystone VitaLink Research, enrollment, CBER, protocol amendment, demographics, FDA, clinical trial, production release, Spartanburg, screening form, participant creation, PPDS, informed consent, COVID-19",False,False,False,False
125752_S10_M5_CRF_mrna-1273-p301-us3412328.pdf,mRNA-1273-P301 Participant Creation Data,09 Jun 2021,https://drive.google.com/file/d/1DmYXPgj5Cls-TjFyxKpCJtrnNUQV0qEx/view?usp=drivesdk,md-production-110124,PDF,2028,M5,Clinical Research Form,KC Joubran,"mRNA-1273, Demographics, P301, Participant Creation, Visit Date, Race, Clinical Trial, Participant ID, Clinical Research, Moderna, Informed Consent, CBER, Vaccine, FDA, Screening, Enrollment, COVID-19",False,False,False,False
125752_S10_M5_CRF_mrna-1273-p301-us3412127.pdf,mRNA-1273-P301 Participant Creation Data,2021-06-09,https://drive.google.com/file/d/1FtOBYFojBU9BVmZMCbXnW3n5KbyCQ3mU/view?usp=drivesdk,md-production-110124,PDF,2046,M5,Clinical Research Form,KC Joubran,"mRNA-1273, COVID-19, vaccine trial, participant data, screen fail, protocol amendment, enrollment, CBER, FDA, demographics, participant ID, production release, clinical trial, screening form, informed consent, New Horizons Clinical Research, clinical research",False,False,False,False
125752_S10_M5_CRF_mrna-1273-p301-us3652039.pdf,mRNA-1273-P301 Completion Guidelines,2021-04-16,https://drive.google.com/file/d/1iMA_EYs_I49b0Wa-P5dRMlStQhjOwCHi/view?usp=drivesdk,md-production-110124,PDF,2721,M5,clinical trial form,KC Joubran,"mRNA-1273, visit data, US3652039, P301, EAB, mrna-1273-p301-us3652039, CBER, demographics, Weill Cornell Medical College, clinical trial, FDA, participant creation, screening form, participant enrollment, production release, informed consent, COVID-19",False,False,False,False
125752_S10_M5_CRF_mrna-1273-p301-us3412300.pdf,mRNA-1273-P301 Participant Creation Data,2021-08-11,https://drive.google.com/file/d/1hOKwZJ7_145yzd5WH2JpeHOabzVGnwAJ/view?usp=drivesdk,md-production-110124,PDF,2450,M5,Clinical Research Form,KC Joubran,"mRNA-1273, visit date, race, ethnicity, participant data, screen fail, protocol amendment, enrollment, CBER, age, FDA, demographics, participant ID, screening, sex, informed consent, clinical research",False,False,False,False
125752_S3_M5_CRF_mrna-1273-p301-us3412259.pdf,COVID-19 mRNA Vaccine Candidate BNT162b2,2022,https://drive.google.com/file/d/1naol10b_E0kGcrBBGPQt_kSTtCkQpoyz/view?usp=drivesdk,md-production-110124,PDF,2,M5,Research Report,"FDA, CBER","Immunogenicity, Biotechnology, Pandemic Response, Efficacy, Clinical Trial, Vaccine Development, Public Health, BNT162b2, Safety, CBER, FDA, Vaccine Approval, Regulatory Submission, Therapeutic Development, mRNA Vaccine, Pharmaceutical Research, COVID-19",False,False,False,False
125752_S10_M5_CRF_mrna-1273-p301-us3512248.pdf,mRNA-1273-P301 Participant Creation Data,10 Jun 2021,https://drive.google.com/file/d/1MS7DxlqBrcqRDDrQEezE7ckcNPX3FphL/view?usp=drivesdk,md-production-110124,PDF,3747,M5,Clinical Research Form,KC Joubran,"mRNA-1273, Demographics, P301, Participant Creation, Clinical Trial, Participant ID, Clinical Research, Moderna, Informed Consent, CBER, Vaccine, FDA, Jacksonville Center for Clinical Research, US3512248, Screening, Enrollment, COVID-19",False,False,False,False
FDA-CBER-2022-1614-2164055-2232507_125752_S3_M5_mrna-1273-p301_S_suppcm.xpt,Moderna COVID-19 Vaccine Clinical Trial Data,2022,https://drive.google.com/file/d/1KjMn7k7cKp1dhpUEjVoFosSkoQJyzgWc/view?usp=drivesdk,md-production-110124,XPT,0,M5,Clinical Trial Report,Moderna,"Biomedical Research, Immunization, Biotechnology, Infectious Disease, Clinical Trial, Data, Public Health, Pharmaceutical, Regulatory Affairs, Moderna, CBER, Vaccine, FDA, Supplementary Material, Regulatory Submission, mRNA, COVID-19",False,False,False,False
125752_S10_M5_CRF_mrna-1273-p301-us3362244.pdf,mRNA-1273-P301 Participant Creation Data,25 Apr 2021,https://drive.google.com/file/d/1_qa63EStmYe9deQaBn_wBDvpiosOiAoD/view?usp=drivesdk,md-production-110124,PDF,2498,M5,Clinical Research Form,KC Joubran,"mRNA-1273, Meridian Clinical Research, Demographics, Participant Creation, Clinical Trial, Participant ID, Moderna, Informed Consent, CBER, Vaccine, FDA, Baton Rouge, US3362244, Screening Form, COVID-19, Enrollment, Louisiana",False,False,False,False
125752_S3_M5_CRF_mrna-1273-p301-us3412304.pdf,mRNA-1273 Phase 3 Clinical Trial Report,2022,https://drive.google.com/file/d/1SWcDYMGZbxxw2-dLzB1vnOKnH_pOGuSe/view?usp=drivesdk,md-production-110124,PDF,2,M5,Clinical Trial Report,,"mRNA-1273, FDA Submission, Immunogenicity, Pandemic Response, Efficacy, Public Health, Moderna, Safety, CBER, Vaccine, Medical Innovation, Adverse Events, Regulatory Submission, Pharmaceutical Research, Clinical Trial Report, Phase 3 Clinical Trial, COVID-19",False,False,False,False
125752_S3_M5_CRF_mrna-1273-p301-us3412067.pdf,mRNA-1273 Phase 3 Clinical Trial Report,2022,https://drive.google.com/file/d/1HmwIQgHuzlXGA2IQ-LPiDfAmrU71oZxY/view?usp=drivesdk,md-production-110124,PDF,2,M5,Clinical Trial Report,,"mRNA-1273, FDA Submission, Immunogenicity, Pandemic Response, Efficacy, Public Health, Moderna, Safety, CBER, Vaccine, Medical Innovation, Adverse Events, Regulatory Submission, Pharmaceutical Research, Clinical Trial Report, Phase 3 Clinical Trial, COVID-19",False,False,False,False
125752_S10_M5_CRF_mrna-1273-p301-us3652038.pdf,mRNA-1273-P301 Participant Creation Data,2021-06-11,https://drive.google.com/file/d/1ON26B8uIrmdhBr2nFnfUXX9BUZaoIZer/view?usp=drivesdk,md-production-110124,PDF,2548,M5,Clinical trial data,(b) (6),"mRNA-1273, visit date, data generation, COVID-19 vaccine, participant data, screen fail, protocol amendment, enrollment, CBER, FDA, Weill Cornell Medical College, clinical trial, demographics, participant ID, screening form, production release, informed consent",False,False,False,False
125752_S3_M5_CRF_mrna-1273-p301-us3302212.pdf,mRNA-1273-P301 Completion Guidelines,09 Jun 2021,https://drive.google.com/file/d/1OVdD7-6GLn_6VLT62Wt_wCddDyZpOeMD/view?usp=drivesdk,md-production-110124,PDF,2135,M5,Clinical trial form,KC Joubran,"mRNA-1273, visit date, COVID-19 vaccine, screen fail, Keystone VitaLink Research, enrollment, CBER, protocol amendment, demographics, FDA, clinical trial, participant creation, Spartanburg, screening form, participant ID, PPDS, informed consent",False,False,False,False
125752_S10_M5_CRF_mrna-1273-p301-us3412129.pdf,mRNA-1273-P301 Participant Creation Data,2021-08-11,https://drive.google.com/file/d/1cc7qneCzmPWN02ItZg4S-BuKXgYpwsL9/view?usp=drivesdk,md-production-110124,PDF,2842,M5,Clinical Research Form,KC Joubran,"mRNA-1273, Demographics, P301, Participant Creation, Protocol Amendment, Screen Fail, Clinical Trial, Participant ID, Clinical Research, Moderna, Informed Consent, CBER, Vaccine, FDA, Screening, Enrollment, COVID-19",False,False,False,False
125752_S10_M5_CRF_mrna-1273-p301-us3362124.pdf,mRNA-1273-P301 Participant Creation Data,2021-04-24,https://drive.google.com/file/d/1UqMJrfg9Dpkfoc8R8xLT7HuFoNEv6gJu/view?usp=drivesdk,md-production-110124,PDF,2411,M5,Clinical trial data,KC Joubran,"mRNA-1273, Meridian Clinical Research, COVID-19 vaccine, participant data, Moderna, enrollment, CBER, protocol amendment, FDA, demographics, clinical trial, participant ID, Baton Rouge, screening form, participant creation, informed consent, Louisiana",False,False,False,False
125752_S3_M5_CRF_mrna-1273-p301-us3512272.pdf,mRNA-1273 Phase 3 Clinical Trial Report,2022,https://drive.google.com/file/d/1J17Wd96bFWhrjgJuQJIzyLio9Ujqgce3/view?usp=drivesdk,md-production-110124,PDF,2,M5,Clinical Trial Report,,"mRNA-1273, FDA Submission, Immunogenicity, Pandemic Response, Efficacy, Public Health, Moderna, Safety, CBER, Vaccine, Medical Innovation, Adverse Events, Regulatory Submission, Pharmaceutical Research, Clinical Trial Report, Phase 3 Clinical Trial, COVID-19",False,False,False,False
125752_S10_M5_CRF_mrna-1273-p301-us3362285.pdf,mRNA-1273-P301 Participant Creation Data,2021-04-25,https://drive.google.com/file/d/1o_5kXh84up6LeJBwlhdthSwB7v06PTJq/view?usp=drivesdk,md-production-110124,PDF,2138,M5,Clinical trial record,KC Joubran,"mRNA-1273, Meridian Clinical Research, COVID-19 vaccine, participant data, screen fail, Moderna, enrollment, CBER, protocol amendment, FDA, demographics, clinical trial, participant ID, Baton Rouge, screening form, informed consent, Louisiana",False,False,False,False
125752_S3_M5_CRF_mrna-1273-p301-us3412059.pdf,mRNA-1273 Phase 3 Clinical Trial Report,2022,https://drive.google.com/file/d/1WsDWQozcV1Yaw3GNv1YL1K-jiBZ-PA08/view?usp=drivesdk,md-production-110124,PDF,2,M5,Clinical Trial Report,,"mRNA-1273, FDA Submission, Immunogenicity, Pandemic Response, Efficacy, Public Health, Moderna, Safety, CBER, Vaccine, Medical Innovation, Adverse Events, Regulatory Submission, Pharmaceutical Research, Clinical Trial Report, Phase 3 Clinical Trial, COVID-19",False,False,False,False
125752_S10_M5_CRF_mrna-1273-p301-us3582102.pdf,mRNA-1273-P301 Participant Creation Data,10 Jun 2021,https://drive.google.com/file/d/1ZYMsmgKlZmgXIgpplUVfnWBfzLNJWabJ/view?usp=drivesdk,md-production-110124,PDF,2774,M5,Clinical Trial Data,KC Joubran,"mRNA-1273, P301, EAB, data generation, COVID-19 vaccine, participant data, Kaiser Permanente, enrollment, CBER, PRODUCTION RELEASE, demographics, FDA, clinical trial, participant creation, screening form, informed consent, US3582102",False,False,False,False
125752_S3_M5_CRF_mrna-1273-p301-us3362083.pdf,mRNA-1273 Phase 3 Clinical Trial Report,2022,https://drive.google.com/file/d/11-fKkrNbgS1GwZcic0b9fBixDjpNuGtE/view?usp=drivesdk,md-production-110124,PDF,2,M5,Clinical Trial Report,,"mRNA-1273, FDA Submission, Immunogenicity, Pandemic Response, Clinical Trial Methodology, Data Analysis, Infectious Disease, Vaccine Efficacy, Vaccine Safety, Public Health, COVID-19 Vaccine, Moderna, Regulatory Approval, Biomedical Engineering, Adverse Events, Pharmaceutical Research, Phase 3 Clinical Trial",False,False,False,False
125752_S3_M5_CRF_mrna-1273-p301-us3362069.pdf,mRNA-1273 Phase 3 Clinical Trial Report,2022,https://drive.google.com/file/d/1ksCB0yD0ievUB1nLKPBC_Yoyed-TYqPB/view?usp=drivesdk,md-production-110124,PDF,2,M5,Clinical Trial Report,,"mRNA-1273, FDA Submission, Immunogenicity, Pandemic Response, Efficacy, Public Health, Moderna, Safety, CBER, Vaccine, Medical Countermeasures, Adverse Events, Pharmaceutical Research, Regulatory Filings, Clinical Trial Report, Phase 3 Clinical Trial, COVID-19",False,False,False,False
125752_S10_M5_CRF_mrna-1273-p301-us3362125.pdf,mRNA-1273-P301 Participant Creation Data,2021-04-24,https://drive.google.com/file/d/10u_AHh7_wjegzDi_Ja-NTbOoJhLaSNRd/view?usp=drivesdk,md-production-110124,PDF,2665,M5,Clinical trial record,KC Joubran,"Visit Date, Louisiana, mRNA-1273, Baton Rouge, Screening, Enrollment, Sex, Screen Fail, FDA, Ethnicity, Meridian Clinical Research, Demographics, Protocol Amendment, Race, Age, Participant ID, Participant Creation Data, Informed Consent, CBER, Clinical trial",False,False,False,False
125752_S10_M5_CRF_mrna-1273-p301-us3412262.pdf,mRNA-1273-P301 Participant Creation Data,09 Jun 2021,https://drive.google.com/file/d/1akAcs0atdniSuRF2ErWIGafZRAeHkNDY/view?usp=drivesdk,md-production-110124,PDF,1623,M5,Clinical Research Form,KC Joubran,"mRNA-1273, Demographics, P301, Participant Creation, Protocol Amendment, Screen Fail, Visit Date, Sex, Participant ID, Date of Birth, Clinical Research, Race, Informed Consent, CBER, FDA, Screening, Ethnicity, Enrollment",False,False,False,False
125752_S3_M5_CRF_mrna-1273-p301-us3362124.pdf,mRNA-1273 Phase 3 Clinical Trial Report,2022,https://drive.google.com/file/d/1Claddgexcqet-N8xFFCyezjHJbzOYZjQ/view?usp=drivesdk,md-production-110124,PDF,2,M5,Clinical Trial Report,,"mRNA-1273, Immunogenicity, Pandemic Response, Efficacy, Public Health, Biomedical Science, Moderna, Safety, CBER, Vaccine, FDA, Adverse Events, Regulatory Submission, Pharmaceutical Research, Clinical Trial Report, Phase 3 Clinical Trial, COVID-19",False,False,False,False
125752_S3_M5_CRF_mrna-1273-p301-us3412129.pdf,mRNA-1273 Phase 3 Clinical Trial Report,2022,https://drive.google.com/file/d/1OgJj-ONZ2oSzo8C-ofc8boXrVUAoKVFe/view?usp=drivesdk,md-production-110124,PDF,2,M5,Clinical Trial Report,,"mRNA-1273, Immunogenicity, Pandemic Response, Efficacy, Public Health, Moderna, Safety, CBER, Vaccine, FDA, Medical Innovation, Adverse Events, Regulatory Submission, Pharmaceutical Research, Clinical Trial Report, Phase 3 Clinical Trial, COVID-19",False,False,False,False
125752_S10_M5_CRF_mrna-1273-p301-us3362069.pdf,mRNA-1273-P301 Completion Guidelines,2021-04-24,https://drive.google.com/file/d/1n4zzvSWQIKwH3ULmVOxUXqY2s7xreT8q/view?usp=drivesdk,md-production-110124,PDF,2183,M5,Clinical Trial Form,KC Joubran,"mRNA-1273, Meridian Clinical Research, Demographics, Participant Creation, Protocol Amendment, Visit Date, Clinical Trial, Age, Participant ID, Informed Consent, CBER, FDA, Baton Rouge, Screening Form, Inclusion/Exclusion Criteria, Enrollment, Louisiana",False,False,False,False
125752_S19_M5_5354_mrna-1273-p904-eu-pass-protocol.pdf,Post-Authorization Active Surveillance Safety Study Using Secondary Data to Monitor Real-World Safety of Spikevax in Europe,27-September-2021,https://drive.google.com/file/d/1EWOgQLPwXCAtIQcC5sy6gWaS-AT4O2Ne/view?usp=drivesdk,md-production-110124,PDF,53,M5,Clinical study protocol,"Moderna Biotech Spain, S.L.","immunocompromised, Europe, COVID-19 infection history, autoimmune disorders, Spikevax, mRNA-1273 vaccine, active surveillance, adverse event surveillance, unstable health conditions, AESI, real-world data, secondary data, women of childbearing age, pharmacovigilance, comorbidities, post-marketing safety study, COVID-19",False,False,False,False
125752_S3_M5_CRF_mrna-1273-p301-us3362285.pdf,mRNA-1273 (Moderna COVID-19 Vaccine) Clinical Study Report,2022,https://drive.google.com/file/d/10j0hhY6XnkVIp8naxhqCU9DeGyya16pk/view?usp=drivesdk,md-production-110124,PDF,2,M5,Clinical Study Report,,"mRNA-1273, FDA Submission, Immunogenicity, Pandemic Response, Efficacy, Clinical Study Report, Vaccine Development, Infectious Disease, Public Health, Biotechnology, Regulatory Compliance, Safety, Regulatory Approval, Molecular Biology, Moderna COVID-19 Vaccine, Vaccine Trials, Pharmaceutical Research",False,False,False,False
125752_S3_M5_CRF_mrna-1273-p301-us3582102.pdf,Placeholder Document - Replace FDA-CBER-2022-1614-2156339,2022,https://drive.google.com/file/d/18MgNrYAcUX1SS5P-5e7GvleczIcLN3ZP/view?usp=drivesdk,md-production-110124,PDF,2,M5,Placeholder,,"1614, p301, regulatory, 2022, fda, mrna, vaccine, document, 1273, placeholder, 2156340, us3582102, clinical, replacement, cber, research, 2156339",False,False,False,False
125752_S10_M5_CRF_mrna-1273-p301-us3512272.pdf,mRNA-1273-P301 Participant Creation Data,2021-06-10,https://drive.google.com/file/d/1MH_XS0gtkGUAzzOjutP76f2RMieNwmVl/view?usp=drivesdk,md-production-110124,PDF,2680,M5,Clinical trial data,KC Joubran,"mRNA-1273, data generation, COVID-19 vaccine, participant data, screen fail, protocol amendment, enrollment, CBER, Jacksonville Center for Clinical Research, FDA, demographics, clinical trial, participant ID, production release, screening form, time stamp, informed consent",False,False,False,False
125752_S19_M5_5354_mrna-1273-p905-eu-pass-preg-protocol.pdf,Monitoring safety of Spikevax in pregnancy: an observational study using routinely collected health data in five European countries,19 August 2021,https://drive.google.com/file/d/1rIPkqHQxURrxvK-ngqnH4vba8XZwF_Wx/view?usp=drivesdk,md-production-110124,PDF,53,M5,Post-marketing safety study protocol,"Prof. Vera Ehrenstein, Dr. Signe Sørup","pregnancy, adverse neonatal outcomes, Europe, Spain, United Kingdom, congenital malformations, Italy, Spikevax, mRNA-1273 vaccine, adverse pregnancy outcomes, observational study, pharmacovigilance, Denmark, Norway, pregnancy complications, post-marketing safety study, vaccine utilization, COVID-19",False,False,False,False
FDA-CBER-2022-1614-2256413-2283117_125752_S3_M5_mrna-1273-p301_A_D_adarsum.xpt,mRNA-1273 P301 Study Data,2022,https://drive.google.com/file/d/1bTZdxqnsXA5PxLEFSbQJFO7Ms2QPSThF/view?usp=drivesdk,md-production-110124,XPT,0,M5,Clinical Study Data,,"mRNA-1273, Biostatistics, Immunogenicity, Epidemiology, Efficacy, Pharmacodynamics, Public Health, COVID-19 Vaccine, Moderna, Pharmacokinetics, CBER, Safety, FDA, Biomarkers, Adverse Events, Regulatory Submission, Phase 3 Clinical Trial",False,False,False,False
125752_S3_M5_CRF_mrna-1273-p301-us3412262.pdf,mRNA-1273 COVID-19 Vaccine Clinical Trial,2022,https://drive.google.com/file/d/1RkLzCDYUQoi40fTtfQUEMlsMIUpzcN4p/view?usp=drivesdk,md-production-110124,PDF,2,M5,Clinical Trial Report,,"mRNA-1273, vaccine authorization, pandemic response, medical research, pharmaceutical industry, COVID-19 vaccine, regulatory affairs, data analysis, vaccine distribution, vaccine efficacy, public health, CBER, FDA, clinical trial, clinical study, vaccine development, vaccine safety",False,False,False,False
125752_S10_M5_CRF_mrna-1273-p301-us3362083.pdf,mRNA-1273-P301 Completion Guidelines,2021-04-24,https://drive.google.com/file/d/15-lEvOw88TDUwY2aGWx4L6HeuFS-6PrN/view?usp=drivesdk,md-production-110124,PDF,2261,M5,Clinical Research Form,KC Joubran,"mRNA-1273, Meridian Clinical Research, visit data, Louisiana, EAB, CBER, demographics, FDA, clinical trial, participant creation, Baton Rouge, screening, participant enrollment, production release, PPDS, informed consent, COVID-19",False,False,False,False
125752_S3_M5_CRF_mrna-1273-p301-us3412300.pdf,COVID-19 mRNA Vaccine Candidate BNT162b2,2022,https://drive.google.com/file/d/1v7aaHHRU_hklNVCWpqezUjQq3eYZxqlq/view?usp=drivesdk,md-production-110124,PDF,2,M5,Research Report,FDA,"Immunogenicity, Efficacy, Vaccine Development, Public Health, Clinical Trials, Pandemic, BNT162b2, Safety, Regulatory Approval, Vaccine Deployment, Pfizer, Immune Response, Regulatory Submission, Adverse Events, mRNA Vaccine, Pharmaceutical Research, COVID-19",False,False,False,False
125752_S10_M5_CRF_mrna-1273-p301-us3412059.pdf,mRNA-1273-P301 Participant Creation Data,09 Jun 2021,https://drive.google.com/file/d/1orPCuRLBWSejNKGwwyU4GCyn6EKGArHY/view?usp=drivesdk,md-production-110124,PDF,2538,M5,Clinical Research Form,KC Joubran,"mRNA-1273, Demographics, P301, Participant Creation, Clinical Trial, Clinical Research, Pharmaceutical, Medical Research, Moderna, Informed Consent, CBER, Participant Data, FDA, Vaccine Trial, Screening, Enrollment, COVID-19",False,False,False,False
125752_S3_M5_CRF_mrna-1273-p301-us3412328.pdf,COVID-19 Vaccine mRNA-1273 Clinical Trial Report,2022,https://drive.google.com/file/d/1NwLXCrcHRm3mXguHfNcCc-LUccUFdYfz/view?usp=drivesdk,md-production-110124,PDF,2,M5,Clinical Trial Report,,"mRNA-1273, Biomedical Research, Infectious Disease, Clinical Trial, Public Health, Vaccine Development, Safety Assessment, Pharmaceutical, Regulatory Affairs, Moderna, CBER, Vaccine, FDA, Therapeutic Efficacy, Pharmacology, Immunology, COVID-19",False,False,False,False
125752_S3_M5_CRF_mrna-1273-p301-us3362125.pdf,mRNA-1273 COVID-19 Vaccine Clinical Trial,2022,https://drive.google.com/file/d/1_GOkHdJs22imIMKifqze7O2YsIJXeCov/view?usp=drivesdk,md-production-110124,PDF,2,M5,Clinical Trial Report,,"mRNA-1273, vaccine authorization, pandemic response, medical research, pharmaceutical industry, COVID-19 vaccine, regulatory affairs, data analysis, vaccine distribution, vaccine efficacy, public health, CBER, FDA, clinical trial, clinical study, vaccine development, vaccine safety",False,False,False,False
125752_S3_M5_CRF_mrna-1273-p301-us3652039.pdf,mRNA-1273 COVID-19 Vaccine Clinical Trial Report,2022,https://drive.google.com/file/d/1CuHSC6dS-iYF3D_wM0zFzQUUjXxfmZbw/view?usp=drivesdk,md-production-110124,PDF,2,M5,Clinical Trial Report,,"mRNA-1273, FDA Submission, Vaccine Distribution, Pandemic Response, Infectious Disease, Vaccine Development, Clinical Trial, Public Health, Vaccine Safety, COVID-19 Vaccine, Vaccine Efficacy, Moderna, Regulatory Approval, Vaccine Trials, Vaccine Manufacturing, Pharmaceutical Research, Immunology",False,False,False,False
125752_S10_M5_CRF_mrna-1273-p301-us3412067.pdf,mRNA-1273-P301 Participant Creation Data,09 Jun 2021,https://drive.google.com/file/d/1_bbVvgGphqIDqYkKPsxdaRxgXqUKodEp/view?usp=drivesdk,md-production-110124,PDF,2489,M5,Clinical Research Form,KC Joubran,"mRNA-1273, COVID-19, P301, vaccine, protocol amendment, enrollment, CBER, FDA, demographics, clinical trial, participant creation, participant ID, screening, data collection, informed consent, New Horizons Clinical Research, clinical research",False,False,False,False
125752_S3_M5_CRF_mrna-1273-p301-us3512248.pdf,mRNA-1273 Phase 3 Clinical Trial Report,2022,https://drive.google.com/file/d/1vu4BjtEwSN-btRbjqEPAmMIVh5oBEefz/view?usp=drivesdk,md-production-110124,PDF,2,M5,Clinical Trial Report,,"mRNA-1273, FDA Submission, Immunogenicity, Pandemic Response, Efficacy, Public Health, Moderna, Safety, CBER, Vaccine, Medical Innovation, Adverse Events, Pharmaceutical Research, Regulatory Filings, Phase 3 Clinical Trial, Clinical Trial Data, COVID-19",False,False,False,False
125752_S10_M5_CRF_mrna-1273-p301-us3412259.pdf,mRNA-1273-P301 Participant Creation Data,2021-08-11,https://drive.google.com/file/d/1wjPvMFQ-16_VHE7-lYnPMc8VoaQr2t3p/view?usp=drivesdk,md-production-110124,PDF,2762,M5,Clinical Research Form,KC Joubran,"mRNA-1273, Demographics, P301, Participant Creation, Clinical Trial, Clinical Research, Regulatory Compliance, Moderna, Informed Consent, CBER, Vaccine, FDA, Participant Data, Screening, Medical Records, Enrollment, COVID-19",False,False,False,False
125752_S3_M5_CRF_mrna-1273-p301-us3362244.pdf,mRNA-1273 COVID-19 Vaccine,2022,https://drive.google.com/file/d/1_xEJu88BfqZJP-4-Vj-IDxHYiKJTn81F/view?usp=drivesdk,md-production-110124,PDF,2,M5,Regulatory Filing,,"pandemic response, medical research, infectious disease, FDA regulatory filing, vaccine distribution, vaccine efficacy, vaccine manufacturing, clinical trials, public health, vaccine administration, pharmaceutical regulation, biotechnology, vaccine policy, vaccine development, vaccine safety, mRNA vaccine, COVID-19",False,False,False,False
FDA-CBER-2022-1614-2235676-2242584_125752_S3_M5_mrna-1273-p301_S_suppmb.xpt,Moderna COVID-19 Vaccine Clinical Trial Data,2022,https://drive.google.com/file/d/1mc4RXYO_kulkbXdophAG1fOrFu8IL4v_/view?usp=drivesdk,md-production-110124,XPT,0,M5,Clinical Trial Report,Moderna,"Biomedical Research, Biotechnology, Infectious Disease, Clinical Trial, Data, Public Health, Pharmaceutical, Regulatory Affairs, Moderna, CBER, Vaccine, FDA, Supplementary Material, Regulatory Submission, mRNA, Immunology, COVID-19",False,False,False,False
125752_S3_M5_CRF_mrna-1273-p301-us3652038.pdf,mRNA-1273 Phase 3 Clinical Trial Report,2022,https://drive.google.com/file/d/1QBI0W32M5a4y0g3dWSh3f8XiRPc_R_0d/view?usp=drivesdk,md-production-110124,PDF,2,M5,Clinical Trial Report,,"mRNA-1273, Immunogenicity, Pandemic Response, Efficacy, Public Health, Moderna, Safety, CBER, Vaccine, FDA, Medical Innovation, Adverse Events, Regulatory Submission, Pharmaceutical Research, Clinical Trial Report, Phase 3 Clinical Trial, COVID-19",False,False,False,False
125752_S10_M5_CRF_mrna-1273-p301-us3412304.pdf,mRNA-1273-P301 Participant Creation Data,2021-08-11,https://drive.google.com/file/d/1f4VCrN4k2PpBD7Yf4coPu_nw5fwloFus/view?usp=drivesdk,md-production-110124,PDF,2985,M5,Clinical research form,KC Joubran,"mRNA-1273, visit date, data generation, participant data, vaccine, screen fail, protocol amendment, enrollment, CBER, FDA, demographics, participant ID, production release, informed consent, screening, COVID-19, clinical research",False,False,False,False
FDA-CBER-2022-1614-2313121-2348631_125752_S27_M5_mrna-1273-p301_S_ce.xpt,mRNA-1273 Phase 3 Study,2022,https://drive.google.com/file/d/1aua777eqFebn1uMXiD-yiU1LQK3EkG2W/view?usp=drivesdk,md-production-110124,XPT,0,M5,Clinical Study Report,mRNA-1273,"Biostatistics, Immunogenicity, Epidemiology, Efficacy, Pharmacodynamics, Clinical Trial, Public Health, Phase 3, Moderna, Safety, CBER, Vaccine, FDA, Pharmacokinetics, Adverse Events, Regulatory Submission, mRNA",False,False,False,False
125752_S3_M5_CRF_mrna-1273-p301-us3362222.pdf,mRNA-1273 Phase 3 Clinical Trial Report,2022,https://drive.google.com/file/d/1S53ODFjrQ5JHIeJWn9g_3QxNU3FM9Cot/view?usp=drivesdk,md-production-110124,PDF,2,M5,Clinical Trial Report,,"mRNA-1273, Immunogenicity, Pandemic Response, Efficacy, Public Health, Moderna, Safety, CBER, Vaccine, FDA, Medical Innovation, Adverse Events, Regulatory Submission, Pharmaceutical Research, Clinical Trial Report, Phase 3 Clinical Trial, COVID-19",False,False,False,False
125752_S10_M5_CRF_mrna-1273-p301-us3512217.pdf,mRNA-1273-P301 Participant Creation Data,2021-06-10,https://drive.google.com/file/d/1x41jCRfyvckz0mngO9BAUnV8QoXWwA8m/view?usp=drivesdk,md-production-110124,PDF,2242,M5,Clinical Research Form,KC Joubran,"mRNA-1273, visit date, race, ethnicity, participant data, Jacksonville Center for Clinical Research, enrollment, CBER, age, demographics, FDA, clinical trial, production release, participant ID, screening, sex, informed consent, COVID-19",False,False,False,False
125752_S3_M5_CRF_mrna-1273-p301-us3302105.pdf,mRNA-1273-P301 Completion Guidelines,09 Jun 2021,https://drive.google.com/file/d/12umZy_2iNCuiSCEVOrwQ56bxT7XgZlqP/view?usp=drivesdk,md-production-110124,PDF,2566,M5,Clinical Trial Form,KC Joubran,"mRNA-1273, visit data, protocol amendments, COVID-19 vaccine, screen fail, Keystone VitaLink Research, CBER, demographics, FDA, clinical trial, participant creation, Spartanburg, screening form, participant enrollment, clinical trial management, PPDS, informed consent",False,False,False,False
125752_S10_M5_CRF_mrna-1273-p301-us3412016.pdf,mRNA-1273-P301 Participant Creation Data,09 Jun 2021,https://drive.google.com/file/d/1kFUpiRhuaicInT_NCR22j-_lTbfLJqlv/view?usp=drivesdk,md-production-110124,PDF,2607,M5,Clinical Research Form,KC Joubran,"mRNA-1273, Demographics, P301, Participant Creation, Protocol Amendment, Screen Fail, US3412016, Participant ID, Clinical Research, PRODUCTION RELEASE, Informed Consent, CBER, FDA, Screening, Enrollment, New Horizons Clinical Research, FDA-CBER-2022-1614",False,False,False,False
125752_S10_M5_CRF_mrna-1273-p301-us3512176.pdf,mRNA-1273-P301 Participant Creation Data,2021-02-12,https://drive.google.com/file/d/1yn1vLu8ossXj2RA9BtUWoWpuKCTUw4wV/view?usp=drivesdk,md-production-110124,PDF,3515,M5,Clinical trial data,KC Joubran,"mRNA-1273, visit date, EAB, COVID-19 vaccine, race, ethnicity, participant data, Jacksonville Center for Clinical Research, enrollment, CBER, PRODUCTION RELEASE, FDA, demographics, clinical trial, participant ID, screening, informed consent",False,False,False,False
125752_S3_M5_CRF_mrna-1273-p301-us3362023.pdf,mRNA-1273 Phase 3 Clinical Trial Report,2023,https://drive.google.com/file/d/1ysNT8gFNSaARjPfs4BSyaG20ruEjlXec/view?usp=drivesdk,md-production-110124,PDF,2,M5,Clinical Trial Report,,"mRNA-1273, Immunogenicity, Pandemic Response, Efficacy, Public Health, Moderna, Safety, CBER, Vaccine, FDA, Medical Innovation, Adverse Events, Regulatory Submission, Pharmaceutical Research, Clinical Trial Report, Phase 3 Clinical Trial, COVID-19",False,False,False,False
125752_S3_M5_CRF_mrna-1273-p301-us3412013.pdf,mRNA-1273 Phase 3 Clinical Trial Report,2013-04-12,https://drive.google.com/file/d/14ahPu_BJ6nHnsYN9gae_PysysT31fGkl/view?usp=drivesdk,md-production-110124,PDF,2,M5,Clinical Trial Report,,"mRNA-1273, FDA Submission, Epidemiology, Efficacy, Infectious Disease, Public Health, Moderna, Safety, Regulatory Approval, Vaccine, Medical Technology, Biomedical Engineering, Pharmaceutical Research, Phase 3 Clinical Trial, Clinical Trial Data, Immunology, COVID-19",False,False,False,False
125752_S10_M5_CRF_mrna-1273-p301-us3412200.pdf,mRNA-1273-P301 Participant Creation Data,2021-06-09,https://drive.google.com/file/d/1W_wX_ARag1BelJmssqecqy97ea9ccW0l/view?usp=drivesdk,md-production-110124,PDF,2164,M5,Clinical research form,KC Joubran,"mRNA-1273, visit date, race, ethnicity, participant data, protocol amendment, enrollment, CBER, age, FDA, demographics, participant ID, screening, sex, informed consent, New Horizons Clinical Research, clinical research",False,False,False,False
125752_S3_M5_CRF_mrna-1273-p301-us3412205.pdf,mRNA-1273 Phase 3 Clinical Trial Report,2022,https://drive.google.com/file/d/15A766BDjG6YKzN6DdkiGg7VUlm8YRd33/view?usp=drivesdk,md-production-110124,PDF,2,M5,Clinical Trial Report,,"mRNA-1273, FDA Submission, Immunogenicity, Pandemic Response, Efficacy, Public Health, Moderna, Safety, CBER, Vaccine, Medical Innovation, Adverse Events, Regulatory Submission, Pharmaceutical Research, Clinical Trial Report, Phase 3 Clinical Trial, COVID-19",False,False,False,False
125752_S3_M5_CRF_mrna-1273-p301-us3412012.pdf,mRNA-1273 Phase 3 Clinical Trial Report,2012-03-14,https://drive.google.com/file/d/1nzU5YvxVpquFAOO5L8_GUpghADi60ooG/view?usp=drivesdk,md-production-110124,PDF,2,M5,Clinical Trial Report,,"mRNA-1273, FDA Submission, Immunogenicity, Epidemiology, Efficacy, Infectious Disease, Vaccine Development, Public Health, COVID-19 Vaccine, Moderna, Safety, Regulatory Approval, Biomedical Engineering, Pharmaceutical Research, Pharmacology, Phase 3 Clinical Trial, Clinical Trial Data",False,False,False,False
125752_S3_M5_CRF_mrna-1273-p301-us3512199.pdf,mRNA-1273 COVID-19 Vaccine Clinical Trial,2022,https://drive.google.com/file/d/1nT-tasKcXsStygr685w9s1RuIzBSPf59/view?usp=drivesdk,md-production-110124,PDF,2,M5,Clinical Trial Report,,"mRNA-1273, pandemic response, medical research, regulatory submission, pharmaceutical industry, COVID-19 vaccine, immunogenicity, infectious disease, vaccine efficacy, adverse events, public health, CBER, FDA, clinical trial, biotechnology, vaccine development, vaccine safety",False,False,False,False
125752_S3_M5_CRF_mrna-1273-p301-us3302310.pdf,mRNA-1273-P301 Completion Guidelines,11 Aug 2021,https://drive.google.com/file/d/1xrrFLZ-3Onzoklg8SMTylt_xZrBLYAaX/view?usp=drivesdk,md-production-110124,PDF,2526,M5,Clinical Trial Form,KC Joubran,"mRNA-1273, visit date, screen fail, Keystone VitaLink Research, enrollment, CBER, protocol amendment, demographics, FDA, clinical trial, participant creation, Spartanburg, screening form, participant ID, PPDS, vaccine development, informed consent",False,False,False,False
125752_S3_M5_CRF_mrna-1273-p301-us3512176.pdf,mRNA-1273 Vaccine Clinical Trial Report,2022,https://drive.google.com/file/d/12Z94l2nOhLfWewPmcMJZkGs8o5H14zgU/view?usp=drivesdk,md-production-110124,PDF,2,M5,Clinical Trial Report,,"mRNA-1273, Immunogenicity, Efficacy, Clinical Trial, Public Health, Regulatory Compliance, Medical Research, Moderna, Safety, CBER, Vaccine, FDA, Adverse Events, Therapeutic Development, Pharmaceutical Research, Immunology, COVID-19",False,False,False,False
125752_S3_M5_CRF_mrna-1273-p301-us3302472.pdf,mRNA-1273-P301 Completion Guidelines,2021-06-09,https://drive.google.com/file/d/1kNBZLCnUvhGiQIXv3w61UqCav7cVVaxY/view?usp=drivesdk,md-production-110124,PDF,3017,M5,clinical trial form,KC Joubran,"mRNA-1273, visit date, ethnicity, race, date of birth, Keystone VitaLink Research, enrollment, CBER, demographics, FDA, clinical trial, participant creation, Spartanburg, screening form, participant ID, sex, PPDS, informed consent",False,False,False,False
125752_S10_M5_CRF_mrna-1273-p301-us3412205.pdf,mRNA-1273-P301 Participant Creation Data,2021-06-09,https://drive.google.com/file/d/1JumbUmpfIUo9qtcZ9oh18_TPTIN0lo-v/view?usp=drivesdk,md-production-110124,PDF,2627,M5,Clinical Research Form,KC Joubran,"mRNA-1273, visit date, P301, race, screen fail, protocol amendment, enrollment, CBER, PRODUCTION RELEASE, FDA, demographics, participant ID, participant creation, screening, informed consent, New Horizons Clinical Research, clinical research",False,False,False,False
125752_S3_M5_CRF_mrna-1273-p301-us3412200.pdf,COVID-19 mRNA Vaccine Candidate BNT162b2,2022,https://drive.google.com/file/d/1Dk10AVRMey7O8WjM30UU9dqy_yHaG5B3/view?usp=drivesdk,md-production-110124,PDF,2,M5,Research Report,"FDA, CBER","Immunogenicity, Biotechnology, Pandemic Response, Efficacy, Vaccine Development, Public Health, Clinical Trials, BNT162b2, Safety, CBER, FDA, Vaccine Research, Regulatory Submission, Medical Innovation, mRNA Vaccine, Pharmaceutical Research, COVID-19",False,False,False,False
125752_S10_M5_CRF_mrna-1273-p301-us3412013.pdf,mRNA-1273-P301 Participant Creation Data,2021-04-05,https://drive.google.com/file/d/1Qi_wvQnOHNofbECfx8hPTXQgs1_R-qK-/view?usp=drivesdk,md-production-110124,PDF,3358,M5,clinical research form,KC Joubran,"mRNA-1273, visit date, race, ethnicity, participant data, vaccine, screen fail, protocol amendment, enrollment, CBER, FDA, demographics, clinical trial, participant ID, screening, informed consent, New Horizons Clinical Research, COVID-19",False,False,False,False
125752_S3_M5_CRF_mrna-1273-p301-us3412016.pdf,mRNA-1273 Phase 3 Clinical Trial Report,2016-03-12,https://drive.google.com/file/d/1eOLuBRzSuoc6J2AeVQ94m7bWUZenVMvR/view?usp=drivesdk,md-production-110124,PDF,2,M5,Clinical Trial Report,"FDA-CBER-2022-1614-2050736, FDA-CBER-2022-1614-2050737","mRNA-1273, FDA Submission, Immunogenicity, Pandemic Response, Efficacy, Infectious Disease, Vaccine Development, Public Health, Biotechnology, COVID-19 Vaccine, Moderna, Safety, Regulatory Approval, Biomedical Engineering, Pharmaceutical Research, Clinical Trial Report, Phase 3 Clinical Trial",False,False,False,False
FDA-CBER-2022-1614-2242585-2256412_125752_S3_M5_mrna-1273-p301_S_suppvs.xpt,mRNA-1273 Phase 3 Clinical Study Supplementary Data,2022,https://drive.google.com/file/d/1Qk1lvc-nPf9A6i2ttgP5Qgj5g9KlDTS2/view?usp=drivesdk,md-production-110124,XPT,0,M5,Clinical Study Report,mRNA-1273,"Immunogenicity, Pandemic response, Efficacy, Public health, Pharmaceutical development, Biomedical research, Moderna, Safety, CBER, Adverse events, FDA, SARS-CoV-2, Regulatory submission, Phase 3 clinical trial, mRNA vaccine, Supplementary data, COVID-19",False,False,False,False
125752_S10_M5_CRF_mrna-1273-p301-us3362023.pdf,mRNA-1273-P301 Participant Creation Data,2021-04-23,https://drive.google.com/file/d/1jKSkZ0yWxxA_s9dJ5Qfx7-i-JV8WHkwm/view?usp=drivesdk,md-production-110124,PDF,3236,M5,Clinical trial data,KC Joubran,"mRNA-1273, Meridian Clinical Research, Demographics, Date of birth, Sex, Screen fail, Ethnicity, Participant ID, Participant Creation Data, Screening form, FDA-CBER-2022-1614, Baton Rouge, Clinical trial, Visit date, Protocol amendment, Informed consent, Enrollment, Louisiana",False,False,False,False
125752_S10_M5_CRF_mrna-1273-p301-us3512199.pdf,mRNA-1273-P301 Participant Creation Data,2021-08-11,https://drive.google.com/file/d/1fUS6ieHe4-74WpvwSPpwiECix6ib1ffL/view?usp=drivesdk,md-production-110124,PDF,1952,M5,Clinical trial data,KC Joubran,"mRNA-1273, visit date, Jacksonville Center for Clinical Research Center, race, ethnicity, participant data, date of birth, screen fail, enrollment, CBER, protocol version, FDA, demographics, clinical trial, participant ID, screening form, sex, informed consent",False,False,False,False
125752_S10_M5_CRF_mrna-1273-p301-us3412012.pdf,mRNA-1273-P301 Participant Creation Data,2021-04-05,https://drive.google.com/file/d/1LauQSCb_QsjGrljC9wS86-RFB7f5wvFp/view?usp=drivesdk,md-production-110124,PDF,3097,M5,Clinical research form,KC Joubran,"mRNA-1273, visit date, COVID-19 vaccine, race, participant data, screen fail, protocol amendment, enrollment, CBER, Moderna, FDA, demographics, clinical trial, participant ID, screening, informed consent, New Horizons Clinical Research",False,False,False,False
125752_S3_M5_CRF_mrna-1273-p301-us3512217.pdf,mRNA-1273 Phase 3 Clinical Trial Report,2022,https://drive.google.com/file/d/1sA8aW8w8nH3-bn509NkXfTifqwwWfg1G/view?usp=drivesdk,md-production-110124,PDF,2,M5,Clinical Trial Report,,"mRNA-1273, FDA Submission, Immunogenicity, Pandemic Response, Efficacy, Public Health, Moderna, Safety, CBER, Vaccine, Medical Innovation, Adverse Events, Regulatory Submission, Pharmaceutical Research, Clinical Trial Report, Phase 3 Clinical Trial, COVID-19",False,False,False,False
125752_S10_M5_CRF_mrna-1273-p301-us3362222.pdf,mRNA-1273-P301 Participant Creation Data,2021-04-24,https://drive.google.com/file/d/14iZ-Pgk7aN734gAeTKBHsYF2-j4l7QW1/view?usp=drivesdk,md-production-110124,PDF,2902,M5,Clinical trial record,KC Joubran,"mRNA-1273, Meridian Clinical Research, COVID-19, participant data, vaccine, enrollment, CBER, FDA, demographics, clinical trial, participant ID, Baton Rouge, screening form, production release, PPDS, informed consent, Louisiana",False,False,False,False
125752_S3_M5_CRF_mrna-1273-p301-us3302465.pdf,mRNA-1273-P301 Completion Guidelines,09 Jun 2021,https://drive.google.com/file/d/16MLUE1md5wSqqiu14RGLeIa2j4WAVpKy/view?usp=drivesdk,md-production-110124,PDF,1317,M5,Clinical Trial Form,KC Joubran,"mRNA-1273, visit date, screen fail, Keystone VitaLink Research, enrollment, CBER, protocol amendment, demographics, FDA, clinical trial, participant creation, Spartanburg, screening form, participant ID, completion guidelines, PPDS, informed consent",False,False,False,False
125752_S21_M1_rsp-fda-cmts-clin-03nov2021.pdf,"Moderna TX, Inc. mRNA-1273 Response to FDA Comments on Clinical",03 Nov 2021,https://drive.google.com/file/d/1wpCRAm7rxXu7PiXj7NvORGfDJPUnm0OF/view?usp=drivesdk,md-production-110123,PDF,6,M1,Response,,"mRNA-1273, COVID-19 symptoms, data analysis, RT-PCR, vaccine efficacy, N-serology, Moderna, public health, FDA comments, per-protocol set, clinical trial, blinded phase, asymptomatic infection, vaccine development, regulatory submission, open-label phase, sensitivity analysis",False,False,False,False
125752_S11_M5_t14030104010402.pdf,Summary of Duration (Days) of Solicited Adverse Reaction After Second Injection,04MAY2021,https://drive.google.com/file/d/1V3ZfqgwXKDaPkJQkWIDoG7hDY5fxlH7V/view?usp=drivesdk,md-production-110123,PDF,4,M5,Clinical trial data,,"mRNA-1273, duration, medical research, placebo, data analysis, BLA, redness, vaccine, Moderna, pain, second injection, adverse reactions, solicited safety set, clinical trial, erythema, FDA, COVID-19",False,False,False,False
125752_S20_M1_thera-area-user-guide-for-vaccines.pdf,Therapeutic Area Data Standards User Guide for Vaccines,2018-04-09,https://drive.google.com/file/d/1ACdiNi4AhLWBa51zjhZwCABFK1BDJWZJ/view?usp=drivesdk,md-production-110123,PDF,22,M1,User guide,,"data representation, therapeutic area, vaccines, CFAST, data standards, reactogenicity, CDISC, statistical assessments, clinical trials, SDTMIG, CBER, adverse events, FDA, data collection, safety, SDTM, user guide, COVID-19",False,False,False,False
125752_S11_M5_t14030104010401.pdf,Summary of Duration (Days) of Solicited Adverse Reaction After First Injection,04MAY2021,https://drive.google.com/file/d/1H5chNoC5Cnf6DmoPN-ercQvhlWXxmyK4/view?usp=drivesdk,md-production-110123,PDF,4,M5,Clinical trial data,,"mRNA-1273, duration, data analysis, BLA, redness, statistical analysis, safety data, Moderna, pain, adverse reactions, solicited adverse reactions, clinical trial, erythema, FDA submission, local adverse reactions, first injection, data extraction",False,False,False,False
125752_S39_M5_tavares-2013.pdf,Optimal approaches to data collection and analysis of potential immune mediated disorders in clinical trials of new vaccines,2013,https://drive.google.com/file/d/1nAWvNVP6T_1yWcPoG5MgpGW12ZfpHKXd/view?usp=drivesdk,md-production-110123,PDF,7,M5,research paper,"Fernanda Tavares Da Silva, Filip De Keyser, Paul-Henri Lambert, William H. Robinson, René Westhovense, Christian Sindic","adjuvants, new vaccines, case documentation, data analysis, immune-mediated disorders, rheumatology, autoimmune disease, adverse events, immunology, data collection, pharmacovigilance, clinical trial, neurology, epidemiology, causality assessment, vaccine safety, randomized controlled trial",False,False,False,False
125752_S21_M5_table-ir15c-14-2-1-1-2-1-4-1.pdf,Summary of Variant Groups in SARS-CoV-2 RT-PCR Positive,04MAY2021,https://drive.google.com/file/d/1QtwtBFX_pwq4PzXEOf8QxKgi08D0OijK/view?usp=drivesdk,md-production-110123,PDF,3,M5,Data table,,"mRNA-1273, Haplotype, Epidemiology, Blinded study, Variant groups, Placebo, RT-PCR, Public health, Vaccine efficacy, Moderna, Lineage, Viral evolution, Positive samples, Genomic surveillance, Clinical trial, SARS-CoV-2, Infectious disease",False,False,False,False
125752_S21_M5_table-ir15b-14-2-1-1-2-1-4-1.pdf,Summary of COVID-19 Cases Based on Adjudication Committee Assessments,04MAY2021,https://drive.google.com/file/d/1yNSrffgZluN3AlendAXrjWFk2iMJQ3_Z/view?usp=drivesdk,md-production-110123,PDF,3,M5,Clinical Trial Data,,"mRNA-1273, Haplotype, FDA Submission, Clinical Trial, Vaccine Efficacy, Randomization, RT-PCR, Adjudication Committee, Elecsys, Placebo, Moderna, Lineage, Data Extraction, Variant Analysis, Per-Protocol Set, Adverse Events, COVID-19",False,False,False,False
125752_S9_M1_rsp-fda-cmts-clin-17sep2021-ir2.pdf,Response to FDA Comments on Clinical Received on 17 September 2021,17 September 2021,https://drive.google.com/file/d/1k1vp09RqesJFv0UEgQJbB9vMlGE7Rq9n/view?usp=drivesdk,md-production-110123,PDF,1,M1,Response,"Moderna TX, Inc.","mRNA-1273, response to comments, regulatory submission, Miettinen and Nurminen method, statistical analysis, adverse events, blinded phase data, clinical data, FDA comments, demographics, TEAE by SOC and PT, participant reporting, data summary, rate ratio, confidential document, October 4 2021 deadline, vaccine safety",False,False,False,False
125752_S21_M5_table-ir15d-14-2-1-1-2-1-4-1.pdf,Summary of COVID-19 Cases by Variant Groups,04MAY2021,https://drive.google.com/file/d/1Va5kGtioN-JPdbeFIP1jDlKDYPhrWfJJ/view?usp=drivesdk,md-production-110123,PDF,3,M5,Clinical Trial Data,,"mRNA-1273, Epidemiology, Breakthrough Infections, Biostatistics, Clinical Trial, Vaccine Efficacy, Public Health, Adjudication Committee, Moderna, Data Extraction, FDA Review, Lineage Analysis, Variant Analysis, Per-Protocol Set, Regulatory Submission, Pharmaceutical Research, COVID-19",False,False,False,False
