{
  "documents": [
    {
      "filename": "FDA-CBER-2022-908-0015485 to -0015486_125752_S40_M5__table-14-3-1-37-4.docx",
      "title": "Clinical Study Report",
      "date": "2022",
      "googleDriveLink": "https://docs.google.com/document/d/1dBqV6ZhSHcb5-YxGwq2y3bGB8S7EGDZr/edit?usp=drivesdk&ouid=106698971417007077985&rtpof=true&sd=true",
      "folder": "md-production-120423",
      "fileType": "DOCX",
      "pageCount": 1,
      "module": "M5",
      "documentType": "Research Report",
      "peopleMentioned": [],
      "tags": [
        "Research Report",
        "Biostatistics",
        "Efficacy Data",
        "Clinical Study",
        "Immunogenicity",
        "Regulatory Compliance",
        "Pharmaceutical",
        "Safety Data",
        "Medical Research",
        "Pharmacokinetics",
        "CBER",
        "FDA",
        "Regulatory Submission",
        "Adverse Events",
        "Pharmacology",
        "Table 14.3.1.37.4",
        "Toxicology"
      ],
      "hasExemption": false,
      "hasExclusion": false,
      "passwordProtected": false,
      "processed": false,
      "vaccineCandidate": "mRNA-1273",
      "clinicalTrial": "COVE"
    },
    {
      "filename": "FDA-CBER-2022-908-0015483 to -0015484_125752_S40_M5__table-14-3-1-37-3-2.docx",
      "title": "Clinical Study Report",
      "date": "2022",
      "googleDriveLink": "https://docs.google.com/document/d/1VlIvcA7omLRWxukNOLrij7YA-0XuItHH/edit?usp=drivesdk&ouid=106698971417007077985&rtpof=true&sd=true",
      "folder": "md-production-120423",
      "fileType": "DOCX",
      "pageCount": 1,
      "module": "M5",
      "documentType": "Research Report",
      "peopleMentioned": [],
      "tags": [
        "Research Report",
        "Biostatistics",
        "Efficacy Data",
        "Clinical Study",
        "Immunogenicity",
        "Pharmacodynamics",
        "Regulatory Compliance",
        "Pharmaceutical",
        "Medical Research",
        "Table 14.3.1-37.3.2",
        "Pharmacokinetics",
        "CBER",
        "FDA",
        "Regulatory Submission",
        "Adverse Events",
        "Dose Response",
        "Safety Data"
      ],
      "hasExemption": false,
      "hasExclusion": false,
      "passwordProtected": false,
      "processed": false,
      "vaccineCandidate": "mRNA-1273",
      "clinicalTrial": "COVE"
    },
    {
      "filename": "FDA-CBER-2022-908-0015481 to -0015482_ 125752_S40_M5_table-14-3-1-37-3-1.docx",
      "title": "Clinical Study Report",
      "date": "2022",
      "googleDriveLink": "https://docs.google.com/document/d/1YoKMVd-6jUfoQvLSnsIi-Hwe-YzB0hvS/edit?usp=drivesdk&ouid=106698971417007077985&rtpof=true&sd=true",
      "folder": "md-production-120423",
      "fileType": "DOCX",
      "pageCount": 1,
      "module": "M5",
      "documentType": "Research Report",
      "peopleMentioned": [],
      "tags": [
        "Research Report",
        "Biostatistics",
        "Efficacy Data",
        "Clinical Study",
        "Data Analysis",
        "Vaccine Development",
        "Immunology",
        "Regulatory Compliance",
        "Pharmaceutical",
        "Medical Research",
        "CBER",
        "FDA",
        "Regulatory Submission",
        "Table 14.3.1.37.3.1",
        "Adverse Events",
        "Pharmacology",
        "Safety Data"
      ],
      "hasExemption": false,
      "hasExclusion": false,
      "passwordProtected": false,
      "processed": false,
      "vaccineCandidate": "mRNA-1273",
      "clinicalTrial": "COVE"
    },
    {
      "filename": "FDA-CBER-2022-908-0015487 to -0015492_125752_S44_M1_rsp-fda-on-info-req43-07jan2022.docx",
      "title": "Response to FDA on Information Request #43",
      "date": "January 07, 2022",
      "googleDriveLink": "https://docs.google.com/document/d/1W-09YXTtYE0Um9H4OKmI16e87N6IpukA/edit?usp=drivesdk&ouid=106698971417007077985&rtpof=true&sd=true",
      "folder": "md-production-120423",
      "fileType": "DOCX",
      "pageCount": 1,
      "module": "M1",
      "documentType": "Safety data report",
      "peopleMentioned": [
        "Sponsor"
      ],
      "tags": [
        "mRNA-1273",
        "Vaccine safety",
        "COVID-19 vaccine",
        "Adverse event reporting",
        "Vaccine efficacy",
        "SPIKEVAX",
        "CBER",
        "Adverse events",
        "FDA",
        "Clinical trial",
        "Herpes zoster",
        "Regulatory submission",
        "Pharmacovigilance",
        "Safety data",
        "Vaccine development",
        "Study P301",
        "Information request"
      ],
      "hasExemption": false,
      "hasExclusion": false,
      "passwordProtected": false,
      "processed": false,
      "vaccineCandidate": "mRNA-1273",
      "clinicalTrial": "COVE"
    },
    {
      "filename": "FDA-CBER-2022-908-0015480_125752_S40_M1_ir-37-item4-missing-aesofl.xlsx",
      "title": "Adverse Event Summary of Findings (AESOF) for mRNA-1273 Vaccine",
      "date": "2020-07-29 to 2020-11-30",
      "googleDriveLink": "https://docs.google.com/spreadsheets/d/1ysSvNiXRA14bbK1L-WsE_IGRf6gG26fy/edit?usp=drivesdk&ouid=106698971417007077985&rtpof=true&sd=true",
      "folder": "md-production-120423",
      "fileType": "XLSX",
      "pageCount": 20,
      "module": "M1",
      "documentType": "Clinical Trial Data",
      "peopleMentioned": [],
      "tags": [
        "swelling",
        "supraclavicular",
        "inguinal",
        "lymphadenopathy",
        "neck",
        "axillary",
        "AESTDTC",
        "AESOFL",
        "AESTDY",
        "adverse events",
        "FDA",
        "USUBJID",
        "clinical trial",
        "AETERM",
        "AEDECOD",
        "AEENDTC",
        "mRNA-1273 vaccine",
        "CBER",
        "cervical",
        "AEENDY"
      ],
      "hasExemption": false,
      "hasExclusion": false,
      "passwordProtected": false,
      "processed": false,
      "vaccineCandidate": "mRNA-1273",
      "clinicalTrial": "COVE"
    },
    {
      "filename": "FDA-CBER-2022-908-0015465_125752_S40_M1_deep-vein-thrombosis.xlsx",
      "title": "Deep Vein Thrombosis Study",
      "date": "2022",
      "googleDriveLink": "https://docs.google.com/spreadsheets/d/1f78wmvX04JC0Ib9tPqlEV5X8Mz-tnGln/edit?usp=drivesdk&ouid=106698971417007077985&rtpof=true&sd=true",
      "folder": "md-production-120423",
      "fileType": "XLSX",
      "pageCount": 20,
      "module": "M1",
      "documentType": "Clinical Study Report",
      "peopleMentioned": [],
      "tags": [
        "mRNA-1273",
        "deep vein thrombosis",
        "hospitalization",
        "musculoskeletal",
        "race",
        "ethnicity",
        "vaccine",
        "treatment",
        "causality",
        "adverse events",
        "CBER",
        "age",
        "FDA",
        "efficacy",
        "clinical study",
        "safety",
        "sex"
      ],
      "hasExemption": false,
      "hasExclusion": false,
      "passwordProtected": false,
      "processed": false,
      "vaccineCandidate": "mRNA-1273",
      "clinicalTrial": "COVE"
    },
    {
      "filename": "FDA-CBER-2022-908-0015466 to -0015469_125752_S40_M1_dyspnoea-syncope.xlsx",
      "title": "mRNA-1273-P301 Adverse Event Report",
      "date": "2020-08-27",
      "googleDriveLink": "https://docs.google.com/spreadsheets/d/1kXc-FF0im7HK7A-Wx_rKAKuu1kSfyWvD/edit?usp=drivesdk&ouid=106698971417007077985&rtpof=true&sd=true",
      "folder": "md-production-120423",
      "fileType": "XLSX",
      "pageCount": 20,
      "module": "M1",
      "documentType": "Adverse Event Report",
      "peopleMentioned": [
        "US3082130"
      ],
      "tags": [
        "mRNA-1273",
        "Poisoning",
        "Medical Surveillance",
        "Clinical Trial",
        "Adverse Event Reporting",
        "Dyspnea",
        "Respiratory",
        "Injury",
        "Adverse Event",
        "CBER",
        "Vaccine",
        "Cardiovascular",
        "Nervous System",
        "FDA",
        "Pharmacovigilance",
        "Procedural Complication",
        "Syncope"
      ],
      "hasExemption": false,
      "hasExclusion": false,
      "passwordProtected": false,
      "processed": false,
      "vaccineCandidate": "mRNA-1273",
      "clinicalTrial": "COVE"
    },
    {
      "filename": "FDA-CBER-2022-908-0015475 to -0015479_125752_S40_M1_ir-37-item4-after7.xlsx",
      "title": "Adverse Event Report for mRNA-1273 Vaccine",
      "date": "2020-2021",
      "googleDriveLink": "https://docs.google.com/spreadsheets/d/1hIUk29bYBfziqLCjrFINY-84xMQTF59g/edit?usp=drivesdk&ouid=106698971417007077985&rtpof=true&sd=true",
      "folder": "md-production-120423",
      "fileType": "XLSX",
      "pageCount": 20,
      "module": "M1",
      "documentType": "Adverse Event Report",
      "peopleMentioned": [],
      "tags": [
        "AETERM",
        "AEDECOD",
        "AESTDY",
        "mRNA-1273 vaccine",
        "AEREFDTC",
        "adverse events",
        "CBER",
        "FDA",
        "USUBJID",
        "clinical trial",
        "AECAT",
        "AESTDTC",
        "EVTSTDY",
        "AEENDY",
        "vaccine safety",
        "AETPTREF",
        "lymphadenopathy"
      ],
      "hasExemption": false,
      "hasExclusion": false,
      "passwordProtected": false,
      "processed": false,
      "vaccineCandidate": "mRNA-1273",
      "clinicalTrial": "COVE"
    },
    {
      "filename": "FDA-CBER-2022-908-0015460 to -0015464_125752_S39_M1_vertigo.xlsx",
      "title": "Vertigo Study Data",
      "date": "2022",
      "googleDriveLink": "https://docs.google.com/spreadsheets/d/17ee600alxXeTOE6QPnQuRv9B4nWIIFMc/edit?usp=drivesdk&ouid=106698971417007077985&rtpof=true&sd=true",
      "folder": "md-production-120423",
      "fileType": "XLSX",
      "pageCount": 20,
      "module": "M1",
      "documentType": "Clinical Study Data",
      "peopleMentioned": [
        "US3002249"
      ],
      "tags": [
        "mRNA-1273",
        "Data Analysis",
        "Clinical Study",
        "Outcome",
        "Placebo",
        "Causality Assessment",
        "Medical History",
        "Dose Information",
        "CBER",
        "Action Taken",
        "FDA",
        "Serious Adverse Events",
        "Adverse Events",
        "Concomitant Medications",
        "Subject Demographics",
        "Regulatory Submission",
        "Vertigo"
      ],
      "hasExemption": false,
      "hasExclusion": false,
      "passwordProtected": false,
      "processed": false,
      "vaccineCandidate": "mRNA-1273",
      "clinicalTrial": "COVE"
    },
    {
      "filename": "FDA-CBER-2022-908-0015470 to -0015474_125752_S40_M1_ir-37-item-3-ceday8.xlsx",
      "title": "FDA-CBER-2022-908-0015470 to -0015474_125752_S40_M1_ir-37-item-3-ceday8.xlsx",
      "date": "undated",
      "googleDriveLink": "https://docs.google.com/spreadsheets/d/1NyHZAg12Xl_yKJXp5-BuuEt7W4KqpX4s/edit?usp=drivesdk&ouid=106698971417007077985&rtpof=true&sd=true",
      "folder": "md-production-120423",
      "fileType": "XLSX",
      "pageCount": 20,
      "module": "M1",
      "documentType": "unknown",
      "peopleMentioned": [],
      "tags": [
        "claude-parse",
        "needs-review"
      ],
      "hasExemption": false,
      "hasExclusion": false,
      "passwordProtected": false,
      "processed": true,
      "vaccineCandidate": "mRNA-1273",
      "clinicalTrial": "COVE"
    },
    {
      "filename": "FDA-CBER-2022-908-0015456_ 125752_S33_M1_facial-paralysis.xls",
      "title": "Facial Paralysis Data",
      "date": "2022",
      "googleDriveLink": "https://docs.google.com/spreadsheets/d/1BAQw9ZBp-yI8nmI_Hpgl3tXlbINJZGBb/edit?usp=drivesdk&ouid=106698971417007077985&rtpof=true&sd=true",
      "folder": "md-production-120423",
      "fileType": "XLS",
      "pageCount": 0,
      "module": "M1",
      "documentType": "Clinical Data",
      "peopleMentioned": [],
      "tags": [
        "Data Analysis",
        "Neurological Disorder",
        "Immunization",
        "Facial Paralysis",
        "Epidemiology",
        "Clinical Trial",
        "Public Health",
        "Vaccine Safety",
        "Regulatory Compliance",
        "Adverse Event",
        "CBER",
        "FDA",
        "Biomedical Engineering",
        "Regulatory Submission",
        "Pharmaceutical Research",
        "Spreadsheet",
        "Medical Data"
      ],
      "hasExemption": false,
      "hasExclusion": false,
      "passwordProtected": false,
      "processed": false,
      "vaccineCandidate": "mRNA-1273",
      "clinicalTrial": "COVE"
    },
    {
      "filename": "FDA-CBER-2022-908-0015457_125752_S33_M1_herpes-zoster-rtq-cber.xlsx",
      "title": "Herpes Zoster Adverse Event Report",
      "date": "2022",
      "googleDriveLink": "https://docs.google.com/spreadsheets/d/1v-F7qzfky7IrjbmIw_PdiX71hCYVt5iK/edit?usp=drivesdk&ouid=106698971417007077985&rtpof=true&sd=true",
      "folder": "md-production-120423",
      "fileType": "XLSX",
      "pageCount": 20,
      "module": "M1",
      "documentType": "Clinical Trial Data",
      "peopleMentioned": [
        "Avika"
      ],
      "tags": [
        "mRNA-1273",
        "Demographic Data",
        "Severity",
        "Infectious Disease",
        "Viral Infection",
        "Clinical Trial",
        "Safety Monitoring",
        "Causality Assessment",
        "Outcome",
        "Adverse Event",
        "Concomitant Medication",
        "Medical History",
        "CBER",
        "Herpes Zoster",
        "FDA",
        "Vaccine",
        "Pharmacovigilance"
      ],
      "hasExemption": false,
      "hasExclusion": false,
      "passwordProtected": false,
      "processed": false,
      "vaccineCandidate": "mRNA-1273",
      "clinicalTrial": "COVE"
    },
    {
      "filename": "FDA-CBER-2022-908-0015408 to -0015455_125752_S20_M5_mrna-1273-p301_A_D_define2-0-0.xsl",
      "title": "mRNA-1273 P301 Study Definition",
      "date": "2022",
      "googleDriveLink": "https://drive.google.com/file/d/18W0FFSP2-bdyZf4tmre5ihxZSvCYaNf_/view?usp=drivesdk",
      "folder": "md-production-120423",
      "fileType": "XSL",
      "pageCount": 0,
      "module": "M5",
      "documentType": "Study Protocol",
      "peopleMentioned": [],
      "tags": [
        "mRNA-1273",
        "Infectious Disease",
        "Vaccine Development",
        "Immunology",
        "COVID-19 Vaccine",
        "Regulatory Affairs",
        "Moderna",
        "CBER",
        "FDA",
        "Biomedical Engineering",
        "Regulatory Submission",
        "Pharmaceutical Research",
        "Bioinformatics",
        "Clinical Study Protocol",
        "Clinical Data Management",
        "Phase 3 Clinical Trial",
        "Study Definition"
      ],
      "hasExemption": false,
      "hasExclusion": false,
      "passwordProtected": false,
      "processed": false,
      "vaccineCandidate": "mRNA-1273",
      "clinicalTrial": "COVE"
    },
    {
      "filename": "FDA-CBER-2022-908-0015311_125752_S20_M1_taug-vax.xlsx",
      "title": "Adverse Event Reporting for Vaccine Trial",
      "date": "2015-01-10",
      "googleDriveLink": "https://docs.google.com/spreadsheets/d/1mC3TzwtUNvkFAsONfQwaZmKjnZ6cQVsQ/edit?usp=drivesdk&ouid=106698971417007077985&rtpof=true&sd=true",
      "folder": "md-production-120423",
      "fileType": "XLSX",
      "pageCount": 20,
      "module": "M1",
      "documentType": "Clinical Trial Data",
      "peopleMentioned": [
        "ABC-1001"
      ],
      "tags": [
        "Administration Site",
        "Clinical Trial",
        "FAOBJ",
        "FACAT",
        "FAORRES",
        "Vomiting",
        "CBER",
        "Vaccine",
        "FDA",
        "USUBJID",
        "FASEQ",
        "Reactogenicity",
        "Adverse Events",
        "Systemic Reactions",
        "FATEST",
        "FASCAT",
        "Erythema"
      ],
      "hasExemption": false,
      "hasExclusion": false,
      "passwordProtected": false,
      "processed": false,
      "vaccineCandidate": "mRNA-1273",
      "clinicalTrial": "COVE"
    },
    {
      "filename": "FDA-CBER-2022-908-0015312 to -0015359_125752_S20_M5_mrna-1273-p201-add1_A_D_define2-0-0.xsl",
      "title": "mRNA-1273 Vaccine Submission",
      "date": "2022",
      "googleDriveLink": "https://drive.google.com/file/d/1uVW2gL3dbKDyWJ-Wt35bBQs8HMTvjTBV/view?usp=drivesdk",
      "folder": "md-production-120423",
      "fileType": "XSL",
      "pageCount": 0,
      "module": "M5",
      "documentType": "Regulatory Submission",
      "peopleMentioned": [],
      "tags": [
        "Biotechnology",
        "Pharmaceutical Regulation",
        "Clinical Trial",
        "Vaccine Development",
        "Biomedical",
        "Public Health",
        "Vaccine Safety",
        "Pharmaceutical",
        "Vaccine Efficacy",
        "Moderna",
        "CBER",
        "Healthcare",
        "FDA",
        "Regulatory Submission",
        "mRNA vaccine",
        "Immunology",
        "COVID-19"
      ],
      "hasExemption": false,
      "hasExclusion": false,
      "passwordProtected": false,
      "processed": false,
      "vaccineCandidate": "mRNA-1273",
      "clinicalTrial": "COVE"
    },
    {
      "filename": "FDA-CBER-2022-908-0015458 to -0015459_125752_S33_M1_hypersensitivity-7days.xlsx",
      "title": "Hypersensitivity Reactions within 7 Days of COVID-19 Vaccination",
      "date": "2022",
      "googleDriveLink": "https://docs.google.com/spreadsheets/d/1OAlXD1NjwIKkb_qfZRojTv1TGNjCatf7/edit?usp=drivesdk&ouid=106698971417007077985&rtpof=true&sd=true",
      "folder": "md-production-120423",
      "fileType": "XLSX",
      "pageCount": 20,
      "module": "M1",
      "documentType": "Clinical Trial Data",
      "peopleMentioned": [
        "US308",
        "US3082038",
        "US311",
        "US3112169"
      ],
      "tags": [
        "Demographic Data",
        "Relationship to Intervention",
        "Clinical Trial",
        "Adverse Event Reporting",
        "Placebo",
        "Non-Urticarial Rash",
        "Skin Rash",
        "Macular Rash",
        "Vaccination Group",
        "Hypersensitivity",
        "Severity Grading",
        "SARS-CoV-2 Status",
        "Vaccine",
        "Adverse Events",
        "Baseline Serology",
        "Outcome",
        "COVID-19"
      ],
      "hasExemption": false,
      "hasExclusion": false,
      "passwordProtected": false,
      "processed": false,
      "vaccineCandidate": "mRNA-1273",
      "clinicalTrial": "COVE"
    },
    {
      "filename": "FDA-CBER-2022-908-0015360 to -0015407_125752_S20_M5_mrna-1273-p201-d57_A_D_define2-0-0.xsl",
      "title": "mRNA-1273 P201 D57 Analysis Definition",
      "date": "2022",
      "googleDriveLink": "https://drive.google.com/file/d/1hCHW1nl_PI7eVJHfwXM6VdyG95QVig4z/view?usp=drivesdk",
      "folder": "md-production-120423",
      "fileType": "XSL",
      "pageCount": 0,
      "module": "M5",
      "documentType": "Analysis Definition",
      "peopleMentioned": [],
      "tags": [
        "mRNA-1273",
        "Biostatistics",
        "Data Analysis",
        "Clinical Trial",
        "P201",
        "Pharmaceutical",
        "Analysis",
        "D57",
        "Moderna",
        "Regulatory",
        "CBER",
        "Vaccine",
        "FDA",
        "Definition",
        "Submission",
        "Biopharmaceutical",
        "COVID-19"
      ],
      "hasExemption": false,
      "hasExclusion": false,
      "passwordProtected": false,
      "processed": false,
      "vaccineCandidate": "mRNA-1273",
      "clinicalTrial": "COVE"
    },
    {
      "filename": "FDA-CBER-2022-908-0015152 to -0015310_125752_S20_M1_l-ae-solicited-term-by-subj-exarm-2021-05-04.xlsx",
      "title": "Adverse Event Solicited Term by Subject Arm - 2021-05-04",
      "date": "2021-05-04",
      "googleDriveLink": "https://docs.google.com/spreadsheets/d/1BlzO4cHw1QM29OtngRSeEnLXuLCXC6-m/edit?usp=drivesdk&ouid=106698971417007077985&rtpof=true&sd=true",
      "folder": "md-production-120423",
      "fileType": "XLSX",
      "pageCount": 20,
      "module": "M1",
      "documentType": "Clinical Trial Data",
      "peopleMentioned": [],
      "tags": [
        "injection site pain",
        "musculoskeletal disorders",
        "blood and lymphatic system disorders",
        "injection site erythema",
        "general disorders",
        "vaccine",
        "solicited symptoms",
        "nervous system disorders",
        "adverse events",
        "CBER",
        "fatigue",
        "FDA",
        "clinical trial",
        "headache",
        "myalgia",
        "arthralgia",
        "lymphadenopathy"
      ],
      "hasExemption": false,
      "hasExclusion": false,
      "passwordProtected": false,
      "processed": false,
      "vaccineCandidate": "mRNA-1273",
      "clinicalTrial": "COVE"
    },
    {
      "filename": "125752_S8_M1_cover-0008.pdf",
      "title": "Moderna BLA 125752 Sequence No. 0008 Submission",
      "date": "September 29, 2021",
      "googleDriveLink": "https://drive.google.com/file/d/12A71jj9-tpkn3DLUgdFOFzqRFi2lIgYs/view?usp=drivesdk",
      "folder": "md-production-120423",
      "fileType": "PDF",
      "pageCount": 1,
      "module": "M1",
      "documentType": "Regulatory Submission",
      "peopleMentioned": [
        "Marion Gruber",
        "PhD",
        "Michelle Olsen"
      ],
      "tags": [
        "FDA Submission",
        "Virus and Spyware Free",
        "Biologics License Application",
        "Center for Biologics Evaluation and Research",
        "Messenger RNA",
        "mRNA-1273 vaccine",
        "Regulatory Affairs",
        "Moderna",
        "Response to Information Request",
        "Vaccine Research and Review",
        "eCTD Submission",
        "Regulatory Compliance",
        "Assays",
        "Lipid Nanoparticle",
        "BLA 125752",
        "SARS-CoV-2",
        "COVID-19"
      ],
      "hasExemption": false,
      "hasExclusion": false,
      "passwordProtected": false,
      "processed": false,
      "vaccineCandidate": "mRNA-1273",
      "clinicalTrial": "COVE"
    },
    {
      "filename": "125752_S9_M1_cover-0009.pdf",
      "title": "Response to Information Requests for BLA 125752 for mRNA-1273 Vaccine",
      "date": "October 04, 2021",
      "googleDriveLink": "https://drive.google.com/file/d/1QHELh8Ly00Is2Qt9mjXw-EwVz8pjNF7H/view?usp=drivesdk",
      "folder": "md-production-120423",
      "fileType": "PDF",
      "pageCount": 1,
      "module": "M1",
      "documentType": "Regulatory Submission",
      "peopleMentioned": [
        "Marion Gruber",
        "PhD",
        "Michelle Olsen"
      ],
      "tags": [
        "mRNA-1273",
        "FDA Submission",
        "Information Request Response",
        "Virus and Spyware Free",
        "Biologics License Application",
        "COVID-19 Vaccine",
        "Messenger RNA",
        "Regulatory Affairs",
        "Center for Biologics Evaluation and Research",
        "Moderna",
        "Document Control Center",
        "Vaccine Research and Review",
        "Regulatory Strategy",
        "U.S. Food and Drug Administration",
        "eCTD Submission",
        "Lipid Nanoparticle",
        "BLA 125752"
      ],
      "hasExemption": false,
      "hasExclusion": false,
      "passwordProtected": false,
      "processed": false,
      "vaccineCandidate": "mRNA-1273",
      "clinicalTrial": "COVE"
    },
    {
      "filename": "125752_S9_M1_rsp-fda-cmts-clin-28sep2021-ir6.pdf",
      "title": "Response to FDA Comments on Clinical",
      "date": "28 September 2021",
      "googleDriveLink": "https://drive.google.com/file/d/1DTXIY50pZmBVUBwBaj_RzwopaNclT3F9/view?usp=drivesdk",
      "folder": "md-production-120423",
      "fileType": "PDF",
      "pageCount": 6,
      "module": "M1",
      "documentType": "Clinical response",
      "peopleMentioned": [
        "Moderna TX",
        "Inc."
      ],
      "tags": [
        "mRNA-1273",
        "severe COVID-19",
        "CDC definition",
        "revised analysis",
        "submission timeline",
        "confidential",
        "regulatory",
        "pharmaceutical industry",
        "shell tables",
        "clinical data",
        "FDA comments",
        "respiratory failure",
        "hospitalization",
        "efficacy data",
        "vaccine development",
        "manufacturing processes",
        "COVID-19 response"
      ],
      "hasExemption": false,
      "hasExclusion": false,
      "passwordProtected": false,
      "processed": false,
      "vaccineCandidate": "mRNA-1273",
      "clinicalTrial": "COVE"
    },
    {
      "filename": "125752_S8_M1_rsp-fda-cmts-clinical-23sept2021.pdf",
      "title": "Response to FDA Comments on Clinical for mRNA-1273",
      "date": "23 September 2021",
      "googleDriveLink": "https://drive.google.com/file/d/1mM9LXkkClPplofJK1NN9oobZnu_x1ldj/view?usp=drivesdk",
      "folder": "md-production-120423",
      "fileType": "PDF",
      "pageCount": 1,
      "module": "M1",
      "documentType": "Clinical response",
      "peopleMentioned": [
        "Moderna TX",
        "Inc."
      ],
      "tags": [
        "mRNA-1273",
        "random subcohort",
        "immunogenicity",
        "Battelle",
        "clinical response",
        "Pseudovirus VNA",
        "Live Virus MN",
        "Anti-S IgG Multiplex MSD",
        "FDA comments",
        "antibody quantification",
        "binding antibodies",
        "Anti-S-2P IgG ELISA",
        "Duke",
        "PPD",
        "assay methods",
        "neutralizing antibodies",
        "VRC VIP",
        "SARS-CoV-2"
      ],
      "hasExemption": false,
      "hasExclusion": false,
      "passwordProtected": false,
      "processed": false,
      "vaccineCandidate": "mRNA-1273",
      "clinicalTrial": "COVE"
    },
    {
      "filename": "125752_S8_M1_cber-rqstd-tables-batch2.pdf",
      "title": "CBER Requested Tables (mRNA -1273 -P301)",
      "date": "2022",
      "googleDriveLink": "https://drive.google.com/file/d/1xYPIzosJ35LC_qon1_5NfMW59SYJ72s1/view?usp=drivesdk",
      "folder": "md-production-120423",
      "fileType": "PDF",
      "pageCount": 131,
      "module": "M1",
      "documentType": "Clinical Trial Data",
      "peopleMentioned": [
        "ModernaTX",
        "Inc."
      ],
      "tags": [
        "mRNA-1273",
        "Disposition",
        "Safety Analysis",
        "Efficacy Analysis",
        "Solicited Adverse Reactions",
        "Local Adverse Reactions",
        "Onset Within 7 Days",
        "ModernaTX",
        "Inc.",
        "BLA # 125752",
        "Onset After 7 Days",
        "FDA-CBER-2022-908-0014565",
        "Background Characteristics",
        "Clinical Trial Overview",
        "Overall Characteristics",
        "BLA Application #125752",
        "CBER Requested Tables",
        "Confidential"
      ],
      "hasExemption": false,
      "hasExclusion": false,
      "passwordProtected": false,
      "processed": false,
      "vaccineCandidate": "mRNA-1273",
      "clinicalTrial": "COVE"
    },
    {
      "filename": "125752_S5_M1_rsp-fda-cmts-clinical-17sept2021.pdf",
      "title": "Response to FDA Comments on Clinical",
      "date": "17 September 2021",
      "googleDriveLink": "https://drive.google.com/file/d/1MT-9DDUIWrrDwnW3Y3Rx-8D1UXWndOoP/view?usp=drivesdk",
      "folder": "md-production-120423",
      "fileType": "PDF",
      "pageCount": 3,
      "module": "M1",
      "documentType": "clinical response",
      "peopleMentioned": [
        "Moderna TX",
        "Inc."
      ],
      "tags": [
        "mRNA-1273",
        "severe COVID-19",
        "CDC definition",
        "mechanical ventilation",
        "intensive care unit",
        "death",
        "shock",
        "ICU admission",
        "FDA comments",
        "protocol-specified definition",
        "hepatic dysfunction",
        "clinical trial",
        "respiratory failure",
        "ARDS",
        "neurologic dysfunction",
        "hospitalization",
        "intubation",
        "renal dysfunction"
      ],
      "hasExemption": false,
      "hasExclusion": false,
      "passwordProtected": false,
      "processed": false,
      "vaccineCandidate": "mRNA-1273",
      "clinicalTrial": "COVE"
    },
    {
      "filename": "125752_S6_M1_cover-0006.pdf",
      "title": "Response to Information Request #1 for BLA 125752 for mRNA-1273 Vaccine",
      "date": "September 22, 2021",
      "googleDriveLink": "https://drive.google.com/file/d/1_lqmg33NrQ5T245OgmlwySjOHMMGzaq8/view?usp=drivesdk",
      "folder": "md-production-120423",
      "fileType": "PDF",
      "pageCount": 1,
      "module": "M1",
      "documentType": "Submission Letter",
      "peopleMentioned": [
        "Marion Gruber",
        "PhD",
        "Michelle Olsen"
      ],
      "tags": [
        "FDA Submission",
        "Information Request Response",
        "mRNA-1273 Vaccine",
        "Vaccine Development",
        "Vaccine Efficacy",
        "Vaccine Safety",
        "Biologics License Application",
        "Messenger RNA",
        "Regulatory Affairs",
        "Moderna",
        "Vaccine Research and Review",
        "Pediatric Study Plan",
        "Pharmaceutical Regulatory Compliance",
        "Lipid Nanoparticle",
        "BLA 125752",
        "Vaccine Clinical Trials",
        "COVID-19"
      ],
      "hasExemption": false,
      "hasExclusion": false,
      "passwordProtected": false,
      "processed": false,
      "vaccineCandidate": "mRNA-1273",
      "clinicalTrial": "COVE"
    },
    {
      "filename": "125752_S5_M1_form-3674.pdf",
      "title": "FDA Form 3674",
      "date": "2022",
      "googleDriveLink": "https://drive.google.com/file/d/1HmLmBVaNDOmlTeb1AoFudqYpOnDypSvD/view?usp=drivesdk",
      "folder": "md-production-120423",
      "fileType": "PDF",
      "pageCount": 3,
      "module": "M1",
      "documentType": "Application Form",
      "peopleMentioned": [],
      "tags": [
        "Approval",
        "Biotechnology",
        "Clinical",
        "Application",
        "Compliance",
        "Medical",
        "Pharmaceutical",
        "Regulatory",
        "Form",
        "CBER",
        "Submission",
        "FDA",
        "Biologic",
        "Healthcare",
        "Research",
        "Licensing",
        "Government"
      ],
      "hasExemption": false,
      "hasExclusion": false,
      "passwordProtected": false,
      "processed": false,
      "vaccineCandidate": "mRNA-1273",
      "clinicalTrial": "COVE"
    },
    {
      "filename": "125752_S7_M1_updated-rsp-ir1-14sept2021.pdf",
      "title": "Moderna TX, Inc. mRNA-1273 Response to Comments on Safety",
      "date": "14 Sept, 21",
      "googleDriveLink": "https://drive.google.com/file/d/16nkAxkjvqya4TXFf-bDTkedWrR0eckjb/view?usp=drivesdk",
      "folder": "md-production-120423",
      "fileType": "PDF",
      "pageCount": 3,
      "module": "M1",
      "documentType": "Safety response",
      "peopleMentioned": [
        "Moderna TX",
        "Inc."
      ],
      "tags": [
        "mRNA-1273",
        "Newborns",
        "Maternal vaccination",
        "Immunization",
        "Infants",
        "COVID-19 vaccine",
        "Postnatal transmission",
        "Vertical transmission",
        "Moderna",
        "Pediatric development plan",
        "FDA comments",
        "Children",
        "Protective immunity",
        "Reactogenicity",
        "Effectiveness",
        "Safety response",
        "Clinical studies",
        "Information request"
      ],
      "hasExemption": false,
      "hasExclusion": false,
      "passwordProtected": false,
      "processed": false,
      "vaccineCandidate": "mRNA-1273",
      "clinicalTrial": "COVE"
    },
    {
      "filename": "125752_S6_M1_rsp-ir1-14sept2021.pdf",
      "title": "Moderna TX, Inc. mRNA-1273 Response to Comments on Safety",
      "date": "14 Sept, 21",
      "googleDriveLink": "https://drive.google.com/file/d/1hHa9xJzmUh0lCQLvkp5FCCxg78bU4LL3/view?usp=drivesdk",
      "folder": "md-production-120423",
      "fileType": "PDF",
      "pageCount": 2,
      "module": "M1",
      "documentType": "Safety response",
      "peopleMentioned": [
        "Moderna TX",
        "Inc."
      ],
      "tags": [
        "mRNA-1273",
        "Newborns",
        "Maternal vaccination",
        "Dose-finding",
        "Placebo-controlled",
        "Infants",
        "COVID-19 vaccine",
        "Postnatal transmission",
        "Age de-escalation",
        "Vertical transmission",
        "Moderna",
        "Pediatric development plan",
        "FDA comments",
        "Children",
        "Protective immunity",
        "Randomized study",
        "Safety response",
        "Health agencies"
      ],
      "hasExemption": false,
      "hasExclusion": false,
      "passwordProtected": false,
      "processed": false,
      "vaccineCandidate": "mRNA-1273",
      "clinicalTrial": "COVE"
    },
    {
      "filename": "125752_S7_M1_cover-0007.pdf",
      "title": "Response to Information Requests for mRNA-1273 Biologics License Application",
      "date": "September 27, 2021",
      "googleDriveLink": "https://drive.google.com/file/d/1z_ytHm0irYbRIWeU7W9oKZgRitMOvvxk/view?usp=drivesdk",
      "folder": "md-production-120423",
      "fileType": "PDF",
      "pageCount": 1,
      "module": "M1",
      "documentType": "Regulatory Submission",
      "peopleMentioned": [
        "Marion Gruber",
        "PhD",
        "Michelle Olsen"
      ],
      "tags": [
        "mRNA-1273",
        "Vaccine development",
        "Pediatric study",
        "COVID-19 vaccine",
        "Biologics License Application",
        "Center for Biologics Evaluation and Research",
        "Messenger RNA",
        "Moderna",
        "Coronavirus",
        "FDA",
        "Pharmaceutical industry",
        "Regulatory submission",
        "Information request response",
        "Safety analysis",
        "Lipid nanoparticle",
        "Regulatory affairs",
        "SARS-CoV-2"
      ],
      "hasExemption": false,
      "hasExclusion": false,
      "passwordProtected": false,
      "processed": false,
      "vaccineCandidate": "mRNA-1273",
      "clinicalTrial": "COVE"
    },
    {
      "filename": "125752_S5_M1_cover-0005.pdf",
      "title": "Response to Information Requests for BLA 125752 for mRNA-1273 Vaccine",
      "date": "September 21, 2021",
      "googleDriveLink": "https://drive.google.com/file/d/1bazOzLj6fx9Q6dgwYLmudi7QFJ_fGJPr/view?usp=drivesdk",
      "folder": "md-production-120423",
      "fileType": "PDF",
      "pageCount": 1,
      "module": "M1",
      "documentType": "Regulatory Submission",
      "peopleMentioned": [
        "Marion Gruber",
        "PhD",
        "Michelle Olsen"
      ],
      "tags": [
        "mRNA-1273",
        "FDA Submission",
        "Biotechnology",
        "Vaccine Development",
        "Biologics License Application",
        "COVID-19 Vaccine",
        "Messenger RNA",
        "Regulatory Affairs",
        "Regulatory Compliance",
        "Moderna",
        "Pharmaceutical Manufacturing",
        "Vaccine Research and Review",
        "Information Requests",
        "Biologics Evaluation and Research",
        "Lipid Nanoparticle",
        "BLA 125752",
        "SARS-CoV-2"
      ],
      "hasExemption": false,
      "hasExclusion": false,
      "passwordProtected": false,
      "processed": false,
      "vaccineCandidate": "mRNA-1273",
      "clinicalTrial": "COVE"
    },
    {
      "filename": "125752_S5_M1_rsp-ir1-14sept2021.pdf",
      "title": "Moderna TX, Inc. mRNA-1273 Response to Comments on Safety",
      "date": "14 Sept, 21",
      "googleDriveLink": "https://drive.google.com/file/d/1G5koAB-TAlZhuRa7S8y6cPZzfg2Oat6A/view?usp=drivesdk",
      "folder": "md-production-120423",
      "fileType": "PDF",
      "pageCount": 2,
      "module": "M1",
      "documentType": "Safety response",
      "peopleMentioned": [
        "Moderna TX",
        "Inc."
      ],
      "tags": [
        "mRNA-1273",
        "Children 6 months to <12 years",
        "Protocol submission",
        "Study initiation",
        "Information request",
        "Moderna",
        "Phase 2/3 study",
        "Study completion",
        "Pediatric development plan",
        "FDA comments",
        "Reactogenicity",
        "Final report submission",
        "Effectiveness",
        "Safety response",
        "Infants birth to <6 months",
        "SARS-CoV-2 vaccine",
        "Confidential"
      ],
      "hasExemption": false,
      "hasExclusion": false,
      "passwordProtected": false,
      "processed": false,
      "vaccineCandidate": "mRNA-1273",
      "clinicalTrial": "COVE"
    },
    {
      "filename": "125752_S7_M1_rsp-fda-cmts-ir2-clinical-17sept2021.pdf",
      "title": "Response to FDA Comments on Clinical",
      "date": "17 September 2021",
      "googleDriveLink": "https://drive.google.com/file/d/1Lne3yzT8uI3wbTXF72lV-VYizO2VFDwk/view?usp=drivesdk",
      "folder": "md-production-120423",
      "fileType": "PDF",
      "pageCount": 6,
      "module": "M1",
      "documentType": "clinical response",
      "peopleMentioned": [
        "Moderna TX",
        "Inc.",
        "FDA"
      ],
      "tags": [
        "mRNA-1273",
        "randomized database",
        "Part A",
        "clinical response",
        "SMQ analyses",
        "serious adverse events",
        "medically-attended adverse events",
        "vaccine",
        "Part B",
        "FDA comments",
        "safety profile",
        "adverse reactions",
        "follow-up time",
        "data collection",
        "blinded phase",
        "CSR Addendum",
        "adverse events leading to discontinuation"
      ],
      "hasExemption": false,
      "hasExclusion": false,
      "passwordProtected": false,
      "processed": false,
      "vaccineCandidate": "mRNA-1273",
      "clinicalTrial": "COVE"
    },
    {
      "filename": "125752_S51_M1_cover-0051.pdf",
      "title": "Moderna BLA 125752 Sequence No. 0051 Response to Information Request",
      "date": "January 27, 2022",
      "googleDriveLink": "https://drive.google.com/file/d/1A1S5n3IWpMKHEwuoAm9Za35gsRcMR9DB/view?usp=drivesdk",
      "folder": "md-production-120423",
      "fileType": "PDF",
      "pageCount": 1,
      "module": "M1",
      "documentType": "Regulatory Submission",
      "peopleMentioned": [
        "Peter Marks",
        "MD PhD",
        "Michelle Olsen"
      ],
      "tags": [
        "mRNA-1273",
        "FDA Submission",
        "Information Request",
        "Prescribing Information",
        "mRNA Technology",
        "Vaccine Development",
        "COVID-19 vaccine",
        "Biologics License Application",
        "Center for Biologics Evaluation and Research",
        "Regulatory Compliance",
        "Regulatory Affairs",
        "Pharmaceutical Manufacturing",
        "Moderna",
        "Office of Vaccines Research and Review",
        "Lipid Nanoparticle",
        "BLA 125752",
        "SARS-CoV-2"
      ],
      "hasExemption": false,
      "hasExclusion": false,
      "passwordProtected": false,
      "processed": false,
      "vaccineCandidate": "mRNA-1273",
      "clinicalTrial": "COVE"
    },
    {
      "filename": "125752_S50_M1_mtng-mins-fda-tc-lots-20jan2022.pdf",
      "title": "Meeting Minutes - SPIKEVAX (elasomeran mRNA vaccine)",
      "date": "January 20, 2022",
      "googleDriveLink": "https://drive.google.com/file/d/1GTK2JWDXgZ5H7PWzxG2r2ZmsRPkNIBQd/view?usp=drivesdk",
      "folder": "md-production-120423",
      "fileType": "PDF",
      "pageCount": 1,
      "module": "M1",
      "documentType": "Meeting minutes",
      "peopleMentioned": [
        "Paul Granadillo",
        "Jennifer White",
        "Luis Mustafa",
        "Paul Dawidczyk",
        "Michelle Olsen",
        "Sudhakar Agnihothram",
        "Joseph Kulinski",
        "Maryna Eichelberger"
      ],
      "tags": [
        "Lot release",
        "DBSQC",
        "Microbiology",
        "OVRR",
        "BLA",
        "Regulatory approval",
        "Supply chain",
        "SPIKEVAX",
        "Moderna",
        "Quality",
        "CBER",
        "CMC",
        "Regulatory affairs",
        "Infectious diseases",
        "EUA labelled material",
        "Launch lots",
        "mRNA vaccine"
      ],
      "hasExemption": false,
      "hasExclusion": false,
      "passwordProtected": false,
      "processed": false,
      "vaccineCandidate": "mRNA-1273",
      "clinicalTrial": "COVE"
    },
    {
      "filename": "125752_S51_M1_draft-labeling-text-patient-info-clean.pdf",
      "title": "HIGHLIGHTS OF PRESCRIBING INFORMATION for SPIKEVAX (COVID-19 Vaccine, mRNA)",
      "date": "January 27, 2022",
      "googleDriveLink": "https://drive.google.com/file/d/11WmsnimYcMoq_YK7nbJrKOIGAIAw3gBq/view?usp=drivesdk",
      "folder": "md-production-120423",
      "fileType": "PDF",
      "pageCount": 19,
      "module": "M1",
      "documentType": "Prescribing information",
      "peopleMentioned": [],
      "tags": [
        "Warnings and precautions",
        "Intramuscular injection",
        "Chills",
        "Immunization",
        "Headache",
        "Pericarditis",
        "Contraindications",
        "Suspension for injection",
        "Myocarditis",
        "Fever",
        "mRNA vaccine",
        "COVID-19 vaccine",
        "Dosage and administration",
        "Prescribing information",
        "Adverse reactions",
        "Injection site reactions",
        "Initial U.S. approval",
        "Fatigue",
        "SARS-CoV-2"
      ],
      "hasExemption": false,
      "hasExclusion": false,
      "passwordProtected": false,
      "processed": false,
      "vaccineCandidate": "mRNA-1273",
      "clinicalTrial": "COVE"
    },
    {
      "filename": "125752_S51_M1_draft-labeling-text-patient-info-redline.pdf",
      "title": "HIGHLIGHTS OF PRESCRIBING INFORMATION for SPIKEVAX (COVID-19 Vaccine, mRNA)",
      "date": "January 27, 2022",
      "googleDriveLink": "https://drive.google.com/file/d/1pu2SxLRMQCQcVKNDt4isBI3gsDcmuaRJ/view?usp=drivesdk",
      "folder": "md-production-120423",
      "fileType": "PDF",
      "pageCount": 18,
      "module": "M1",
      "documentType": "Prescribing Information",
      "peopleMentioned": [],
      "tags": [
        "Immunization",
        "Adverse reactions",
        "Injection site reactions",
        "Chills",
        "COVID-19 vaccine",
        "Headache",
        "Warnings and precautions",
        "Pericarditis",
        "Dosage and administration",
        "Contraindications",
        "Fatigue",
        "Suspension for injection",
        "Intramuscular injection",
        "Myocarditis",
        "Fever",
        "mRNA vaccine",
        "SARS-CoV-2",
        "Prescribing information"
      ],
      "hasExemption": false,
      "hasExclusion": false,
      "passwordProtected": false,
      "processed": false,
      "vaccineCandidate": "mRNA-1273",
      "clinicalTrial": "COVE"
    },
    {
      "filename": "125752_S52_M1_cover-0052.pdf",
      "title": "Moderna BLA 125752 Sequence No. 0052 Submission",
      "date": "January 28, 2022",
      "googleDriveLink": "https://drive.google.com/file/d/1AbqD2O2SSo0LZdQBLLTEPNjaEp2llJd8/view?usp=drivesdk",
      "folder": "md-production-120423",
      "fileType": "PDF",
      "pageCount": 1,
      "module": "M1",
      "documentType": "Labeling Submission",
      "peopleMentioned": [
        "Peter Marks",
        "MD PhD",
        "Michelle Olsen"
      ],
      "tags": [
        "mRNA-1273",
        "Prescribing Information",
        "FDA Submission",
        "Biotechnology",
        "mRNA-based vaccine",
        "Pharmaceutical Development",
        "COVID-19 vaccine",
        "Biologics License Application",
        "Regulatory Compliance",
        "Regulatory Affairs",
        "Moderna",
        "Coronavirus",
        "Labeling",
        "Lipid Nanoparticle",
        "BLA 125752",
        "Vaccine Technology",
        "SARS-CoV-2"
      ],
      "hasExemption": false,
      "hasExclusion": false,
      "passwordProtected": false,
      "processed": false,
      "vaccineCandidate": "mRNA-1273",
      "clinicalTrial": "COVE"
    },
    {
      "filename": "125752_S52_M1_draft-labeling-text-patient-info-clean.pdf",
      "title": "HIGHLIGHTS OF PRESCRIBING INFORMATION for SPIKEVAX (COVID-19 Vaccine, mRNA)",
      "date": "January 28, 2022",
      "googleDriveLink": "https://drive.google.com/file/d/1gqoPvd8KfhVNelAOHPu_f2_ko4tZ74M_/view?usp=drivesdk",
      "folder": "md-production-120423",
      "fileType": "PDF",
      "pageCount": 18,
      "module": "M1",
      "documentType": "Prescribing information",
      "peopleMentioned": [],
      "tags": [
        "COVID-19 vaccine",
        "dosage and administration",
        "intramuscular injection",
        "vaccine efficacy",
        "prescribing information",
        "vaccine administration",
        "vaccine side effects",
        "adverse reactions",
        "indications and usage",
        "warnings and precautions",
        "suspension for injection",
        "vaccine approval",
        "vaccine guidelines",
        "mRNA vaccine",
        "vaccine safety",
        "SARS-CoV-2",
        "contraindications"
      ],
      "hasExemption": false,
      "hasExclusion": false,
      "passwordProtected": false,
      "processed": false,
      "vaccineCandidate": "mRNA-1273",
      "clinicalTrial": "COVE"
    },
    {
      "filename": "125752_S50_M1_cover-0050.pdf",
      "title": "Meeting Minutes - FDA Teleconference Regarding Launch Lots",
      "date": "January 26, 2022",
      "googleDriveLink": "https://drive.google.com/file/d/1KREdYGtbfDuXnBCpGo5b6kmtenA8jL_i/view?usp=drivesdk",
      "folder": "md-production-120423",
      "fileType": "PDF",
      "pageCount": 1,
      "module": "M1",
      "documentType": "Meeting Minutes",
      "peopleMentioned": [
        "Peter Marks",
        "MD PhD",
        "Michelle Olsen"
      ],
      "tags": [
        "mRNA-1273",
        "regulatory affairs",
        "launch lots",
        "virus and spyware free",
        "COVID-19 vaccine",
        "eCTD",
        "Center for Biologics Evaluation and Research",
        "FDA teleconference",
        "Moderna",
        "messenger RNA",
        "U.S. Food and Drug Administration",
        "Office of Vaccines Research and Review",
        "lipid nanoparticle",
        "Palo Alto Traps",
        "BLA 125752",
        "regulatory submission",
        "biologics license application"
      ],
      "hasExemption": false,
      "hasExclusion": false,
      "passwordProtected": false,
      "processed": false,
      "vaccineCandidate": "mRNA-1273",
      "clinicalTrial": "COVE"
    },
    {
      "filename": "125752_S51_M1_rsp-fda-on-info-req48-26jan2022.pdf",
      "title": "Response to FDA on Information Request #48",
      "date": "26 January 2022",
      "googleDriveLink": "https://drive.google.com/file/d/1TB0Oj0nTeNbCGaYAP4-5KbLRKzIPGVit/view?usp=drivesdk",
      "folder": "md-production-120423",
      "fileType": "PDF",
      "pageCount": 1,
      "module": "M1",
      "documentType": "Regulatory response",
      "peopleMentioned": [
        "ModernaTx",
        "Inc."
      ],
      "tags": [
        "Vaccine post-marketing surveillance",
        "FDA information request",
        "elasomeran mRNA vaccine",
        "COVID-19 vaccine",
        "Adverse event reporting",
        "Vaccine safety",
        "Vaccine efficacy",
        "SPIKEVAX",
        "Moderna",
        "Unsolicited Adverse Events",
        "Pharmaceutical industry",
        "Delayed injection site reactions",
        "Regulatory submission",
        "Clinical data",
        "Vaccine side effects",
        "Vaccine development",
        "Vaccine clinical trials"
      ],
      "hasExemption": false,
      "hasExclusion": false,
      "passwordProtected": false,
      "processed": false,
      "vaccineCandidate": "mRNA-1273",
      "clinicalTrial": "COVE"
    },
    {
      "filename": "125752_S52_M1_draft-labeling-text-patient-info-redline.pdf",
      "title": "HIGHLIGHTS OF PRESCRIBING INFORMATION for SPIKEVAX (COVID-19 Vaccine, mRNA)",
      "date": "January 28, 2022",
      "googleDriveLink": "https://drive.google.com/file/d/11kGB7daGgIJJznXQjpUfaNzpBudsgdrM/view?usp=drivesdk",
      "folder": "md-production-120423",
      "fileType": "PDF",
      "pageCount": 18,
      "module": "M1",
      "documentType": "Prescribing Information",
      "peopleMentioned": [],
      "tags": [
        "Immunization",
        "Adverse reactions",
        "Injection site reactions",
        "Chills",
        "COVID-19 vaccine",
        "Headache",
        "Warnings and precautions",
        "Pericarditis",
        "Dosage and administration",
        "Contraindications",
        "Fatigue",
        "Suspension for injection",
        "Myalgia",
        "Intramuscular injection",
        "Myocarditis",
        "mRNA vaccine",
        "SARS-CoV-2",
        "Prescribing information"
      ],
      "hasExemption": false,
      "hasExclusion": false,
      "passwordProtected": false,
      "processed": false,
      "vaccineCandidate": "mRNA-1273",
      "clinicalTrial": "COVE"
    },
    {
      "filename": "125752_S46_M1_cover-0046.pdf",
      "title": "Response to Information Request for mRNA-1273 Biologics License Application",
      "date": "January 14, 2022",
      "googleDriveLink": "https://drive.google.com/file/d/1IdOxJgT78b_TlH02wYm7xqdRqxaFO1i-/view?usp=drivesdk",
      "folder": "md-production-120423",
      "fileType": "PDF",
      "pageCount": 1,
      "module": "M1",
      "documentType": "Regulatory Submission",
      "peopleMentioned": [
        "Peter Marks",
        "Michelle Olsen"
      ],
      "tags": [
        "mRNA-1273",
        "Information Request",
        "Vaccine Development",
        "COVID-19 vaccine",
        "Pharmaceutical Development",
        "Biologics License Application",
        "Messenger RNA",
        "Vaccine Licensing",
        "Regulatory Affairs",
        "Vaccine Regulation",
        "Moderna",
        "FDA",
        "Vaccine Approval",
        "Regulatory Submission",
        "Lipid Nanoparticle",
        "Coronavirus",
        "SARS-CoV-2"
      ],
      "hasExemption": false,
      "hasExclusion": false,
      "passwordProtected": false,
      "processed": false,
      "vaccineCandidate": "mRNA-1273",
      "clinicalTrial": "COVE"
    },
    {
      "filename": "125752_S44_M1_cover-0044.pdf",
      "title": "Response to Information Request #43 for mRNA-1273 BLA",
      "date": "January 10, 2022",
      "googleDriveLink": "https://drive.google.com/file/d/193invDjp8y7kgbFaEzUNS3ByNaTyK99S/view?usp=drivesdk",
      "folder": "md-production-120423",
      "fileType": "PDF",
      "pageCount": 1,
      "module": "M1",
      "documentType": "Regulatory Submission",
      "peopleMentioned": [
        "Marion Gruber",
        "PhD",
        "Michelle Olsen"
      ],
      "tags": [
        "mRNA-1273",
        "COVID-19 vaccine",
        "BLA",
        "Biologics License Application",
        "Messenger RNA",
        "Moderna",
        "Vaccine research and review",
        "FDA",
        "Regulatory strategy",
        "Biologics Evaluation and Research",
        "Regulatory submission",
        "Lipid nanoparticle",
        "Safety data",
        "Vaccine development",
        "Regulatory affairs",
        "SARS-CoV-2",
        "Information request"
      ],
      "hasExemption": false,
      "hasExclusion": false,
      "passwordProtected": false,
      "processed": false,
      "vaccineCandidate": "mRNA-1273",
      "clinicalTrial": "COVE"
    },
    {
      "filename": "125752_S40_M5_table-14-3-1-37-3-2.pdf",
      "title": "Summary of Syncope up to 7 Days After Each Injection",
      "date": "04MAY2021",
      "googleDriveLink": "https://drive.google.com/file/d/1PJgkp-2fOJGCsQIhoB5btRG5kXWdmob0/view?usp=drivesdk",
      "folder": "md-production-120423",
      "fileType": "PDF",
      "pageCount": 2,
      "module": "M5",
      "documentType": "Clinical Trial Data",
      "peopleMentioned": [],
      "tags": [
        "mRNA-1273",
        "medical terminology",
        "placebo-controlled",
        "data analysis",
        "syncope",
        "BLA",
        "vaccine",
        "safety data",
        "adverse events",
        "Moderna",
        "CBER",
        "MedDRA",
        "FDA",
        "clinical trial",
        "dose comparison",
        "statistical reporting",
        "COVID-19"
      ],
      "hasExemption": false,
      "hasExclusion": false,
      "passwordProtected": false,
      "processed": false,
      "vaccineCandidate": "mRNA-1273",
      "clinicalTrial": "COVE"
    },
    {
      "filename": "125752_S46_M1_rsp-fda-on-info-req45-13jan2022.pdf",
      "title": "Response to FDA on Information Request #45",
      "date": "13 January 2022",
      "googleDriveLink": "https://drive.google.com/file/d/1reEXkp1EocY1Wmcm6a-HtOqL4Wtcznua/view?usp=drivesdk",
      "folder": "md-production-120423",
      "fileType": "PDF",
      "pageCount": 3,
      "module": "M1",
      "documentType": "Clinical response",
      "peopleMentioned": [
        "ModernaTx",
        "Inc."
      ],
      "tags": [
        "regulatory affairs",
        "FDA information request",
        "pharmaceutical response",
        "COVID-19 vaccine",
        "medical research",
        "vaccine development",
        "safety data",
        "SPIKEVAX",
        "adverse events",
        "myocardial infarction",
        "clinical data",
        "clinical study P301",
        "vaccine side effects",
        "vaccine efficacy",
        "mRNA vaccine",
        "chest pain",
        "vaccine safety"
      ],
      "hasExemption": false,
      "hasExclusion": false,
      "passwordProtected": false,
      "processed": false,
      "vaccineCandidate": "mRNA-1273",
      "clinicalTrial": "COVE"
    },
    {
      "filename": "125752_S40_M5__table-14-3-1-37-4.pdf",
      "title": "Summary of Deep Vein Thrombosis up to 28 Days After Each Injection",
      "date": "04MAY2021",
      "googleDriveLink": "https://drive.google.com/file/d/1qT-BZcmQ5TzEUhZD9k58jEgUNJDxj64k/view?usp=drivesdk",
      "folder": "md-production-120423",
      "fileType": "PDF",
      "pageCount": 2,
      "module": "M5",
      "documentType": "Clinical Trial Data",
      "peopleMentioned": [],
      "tags": [
        "mRNA-1273",
        "medical data",
        "deep vein thrombosis",
        "medical research",
        "pharmaceutical",
        "BLA",
        "data extraction",
        "vaccine",
        "safety data",
        "injection",
        "adverse events",
        "Moderna",
        "MedDRA",
        "statistical analysis",
        "FDA",
        "clinical trial",
        "COVID-19"
      ],
      "hasExemption": false,
      "hasExclusion": false,
      "passwordProtected": false,
      "processed": false,
      "vaccineCandidate": "mRNA-1273",
      "clinicalTrial": "COVE"
    },
    {
      "filename": "125752_S49_M1_rsp-fda-on-info-req47-24jan2022.pdf",
      "title": "Response to FDA on Information Request #47",
      "date": "24 Jan 2022",
      "googleDriveLink": "https://drive.google.com/file/d/18QyOzVANsacfLOi2JExOHIpIzQgvMoUw/view?usp=drivesdk",
      "folder": "md-production-120423",
      "fileType": "PDF",
      "pageCount": 1,
      "module": "M1",
      "documentType": "Medical response",
      "peopleMentioned": [
        "Subject US3352594"
      ],
      "tags": [
        "FDA information request",
        "randomized trial",
        "participant withdrawal",
        "case narrative",
        "study procedures",
        "SPIKEVAX",
        "adverse events",
        "Moderna",
        "medical history",
        "fatigue",
        "study drug",
        "Hispanic or Latino",
        "chills",
        "situational anxiety",
        "muscle aches",
        "joint aches",
        "mRNA vaccine"
      ],
      "hasExemption": false,
      "hasExclusion": false,
      "passwordProtected": false,
      "processed": false,
      "vaccineCandidate": "mRNA-1273",
      "clinicalTrial": "COVE"
    },
    {
      "filename": "125752_S4_M1_cber-rqstd-tables.pdf",
      "title": "CBER Requested Tables",
      "date": "2022",
      "googleDriveLink": "https://drive.google.com/file/d/1l6PTPl-T0ZT1Toz1KE2TrnPfpM4aOEty/view?usp=drivesdk",
      "folder": "md-production-120423",
      "fileType": "PDF",
      "pageCount": 108,
      "module": "M1",
      "documentType": "Clinical report",
      "peopleMentioned": [
        "ModernaTX",
        "Inc."
      ],
      "tags": [
        "mRNA-1273",
        "Disposition",
        "Overall Characteristics",
        "Safety Analysis",
        "Efficacy Analysis",
        "CONFIDENTIAL",
        "Solicited Adverse Reactions",
        "Local Adverse Reactions",
        "Onset Within 7 Days",
        "Moderna",
        "Onset After 7 Days",
        "Vaccine",
        "FDA",
        "Background Characteristics",
        "Clinical Trial Overview",
        "FDA-CBER-2022-908-0014434",
        "BLA Application #125752"
      ],
      "hasExemption": false,
      "hasExclusion": false,
      "passwordProtected": false,
      "processed": false,
      "vaccineCandidate": "mRNA-1273",
      "clinicalTrial": "COVE"
    },
    {
      "filename": "125752_S4_M1_cover-0004.pdf",
      "title": "Moderna BLA Submission for mRNA-1273 Vaccine",
      "date": "September 15, 2021",
      "googleDriveLink": "https://drive.google.com/file/d/1ADfFAzV5tDIS08W3QDlp76kWBgHhISw9/view?usp=drivesdk",
      "folder": "md-production-120423",
      "fileType": "PDF",
      "pageCount": 1,
      "module": "M1",
      "documentType": "Regulatory Submission",
      "peopleMentioned": [
        "Marion Gruber",
        "PhD",
        "Michelle Olsen"
      ],
      "tags": [
        "mRNA-1273",
        "Vaccine Development",
        "Biologics License Application",
        "COVID-19 Vaccine",
        "Regulatory Compliance",
        "Regulatory Affairs",
        "Moderna",
        "mRNA-based Vaccine",
        "CBER",
        "Vaccine Research and Review",
        "FDA",
        "eCTD Submission",
        "Pharmaceutical Regulatory",
        "Lipid Nanoparticle",
        "Coronavirus",
        "BLA Submission",
        "SARS-CoV-2"
      ],
      "hasExemption": false,
      "hasExclusion": false,
      "passwordProtected": false,
      "processed": false,
      "vaccineCandidate": "mRNA-1273",
      "clinicalTrial": "COVE"
    },
    {
      "filename": "125752_S40_M5__table-14-3-1-37-3-1.pdf",
      "title": "Summary of Dyspnoea up to 7 Days After Each Injection",
      "date": "04MAY2021",
      "googleDriveLink": "https://drive.google.com/file/d/1lhaGekOz2-j3TPId3FQOd-nNtWXg4Y1A/view?usp=drivesdk",
      "folder": "md-production-120423",
      "fileType": "PDF",
      "pageCount": 2,
      "module": "M5",
      "documentType": "Clinical Trial Data",
      "peopleMentioned": [],
      "tags": [
        "mRNA-1273",
        "onset day",
        "placebo",
        "data analysis",
        "statistical report",
        "dyspnoea",
        "BLA",
        "vaccine",
        "safety data",
        "injection",
        "adverse events",
        "Moderna",
        "MedDRA",
        "CBER",
        "FDA",
        "clinical trial",
        "COVID-19"
      ],
      "hasExemption": false,
      "hasExclusion": false,
      "passwordProtected": false,
      "processed": false,
      "vaccineCandidate": "mRNA-1273",
      "clinicalTrial": "COVE"
    },
    {
      "filename": "125752_S49_M1_cover-0049.pdf",
      "title": "Response to Information Request for mRNA-1273 Biologics License Application",
      "date": "January 25, 2022",
      "googleDriveLink": "https://drive.google.com/file/d/1Sql9YSaXSzMihR_azdijo1hh1nQiM12h/view?usp=drivesdk",
      "folder": "md-production-120423",
      "fileType": "PDF",
      "pageCount": 1,
      "module": "M1",
      "documentType": "Regulatory Submission",
      "peopleMentioned": [
        "Peter Marks",
        "MD PhD",
        "Michelle Olsen"
      ],
      "tags": [
        "mRNA-1273",
        "Information Request",
        "Vaccine Development",
        "COVID-19 vaccine",
        "eCTD",
        "Biologics License Application",
        "Messenger RNA",
        "Virus and Spyware Free",
        "Regulatory Affairs",
        "Moderna",
        "FDA",
        "Regulatory Affairs Strategy",
        "Biologics Evaluation and Research",
        "Vaccines Research and Review",
        "Regulatory Submission",
        "Lipid Nanoparticle",
        "SARS-CoV-2"
      ],
      "hasExemption": false,
      "hasExclusion": false,
      "passwordProtected": false,
      "processed": false,
      "vaccineCandidate": "mRNA-1273",
      "clinicalTrial": "COVE"
    },
    {
      "filename": "125752_S38_M1_cover-0038.pdf",
      "title": "Response to FDA Comments on Information Request #32",
      "date": "December 17, 2021",
      "googleDriveLink": "https://drive.google.com/file/d/15iTPvihLsWrvzd1Gl1dSeFQkd-bBRp-M/view?usp=drivesdk",
      "folder": "md-production-120423",
      "fileType": "PDF",
      "pageCount": 1,
      "module": "M1",
      "documentType": "Regulatory submission",
      "peopleMentioned": [
        "Marion Gruber",
        "PhD",
        "Michelle Olsen"
      ],
      "tags": [
        "mRNA-1273",
        "response to comments",
        "regulatory affairs",
        "FDA review",
        "COVID-19 vaccine",
        "eCTD",
        "messenger RNA",
        "Moderna",
        "analytical method",
        "information request",
        "coronavirus",
        "vaccine research and review",
        "lipid nanoparticle",
        "BLA 125752",
        "regulatory submission",
        "SARS-CoV-2",
        "biologics license application"
      ],
      "hasExemption": false,
      "hasExclusion": false,
      "passwordProtected": false,
      "processed": false,
      "vaccineCandidate": "mRNA-1273",
      "clinicalTrial": "COVE"
    },
    {
      "filename": "125752_S40_M1_rsp-fda-cmts-info-req37-16dec2021.pdf",
      "title": "Response to FDA Comments on Information Request #37",
      "date": "16 December 2021",
      "googleDriveLink": "https://drive.google.com/file/d/1YRQaPL74uA-tSSOWLpPcFLprfX2TwCqR/view?usp=drivesdk",
      "folder": "md-production-120423",
      "fileType": "PDF",
      "pageCount": 4,
      "module": "M1",
      "documentType": "Response",
      "peopleMentioned": [
        "ModernaTx",
        "Inc.",
        "SPIKEVAX (elasomeran mRNA vaccine)"
      ],
      "tags": [
        "data management",
        "data sets",
        "regulatory response",
        "regulatory compliance",
        "FDA information request",
        "data analysis",
        "COVID-19 vaccine",
        "vaccine development",
        "SPIKEVAX",
        "data quality",
        "data categorization",
        "adverse reactions",
        "data reporting",
        "data submission",
        "clinical trial data",
        "mRNA vaccine",
        "data integrity"
      ],
      "hasExemption": false,
      "hasExclusion": false,
      "passwordProtected": false,
      "processed": false,
      "vaccineCandidate": "mRNA-1273",
      "clinicalTrial": "COVE"
    },
    {
      "filename": "125752_S40_M1_rsp-fda-cmts-ir35-26nov2021.pdf",
      "title": "Response to FDA Comments on Information Request #35",
      "date": "November 26, 2021",
      "googleDriveLink": "https://drive.google.com/file/d/1sAZ145NszC7HPh9oM7NHjUvlLX-1RQYI/view?usp=drivesdk",
      "folder": "md-production-120423",
      "fileType": "PDF",
      "pageCount": 3,
      "module": "M1",
      "documentType": "Technical response",
      "peopleMentioned": [
        "ModernaTX",
        "Inc."
      ],
      "tags": [
        "mRNA-1273",
        "regulatory compliance",
        "FDA information request",
        "purity testing",
        "COVID-19 vaccine",
        "confidential",
        "technical response",
        "SOP-1142",
        "stability samples",
        "method validation",
        "SPIKEVAX",
        "linearity",
        "acceptance criteria",
        "spiking",
        "product quality",
        "mRNA vaccine",
        "supplemental validation"
      ],
      "hasExemption": false,
      "hasExclusion": false,
      "passwordProtected": false,
      "processed": false,
      "vaccineCandidate": "mRNA-1273",
      "clinicalTrial": "COVE"
    },
    {
      "filename": "125752_S39_M1_rsp-fda-cmts-info-req36-16dec2021.pdf",
      "title": "Response to FDA Comments on Information Request #36",
      "date": "16 December 2021",
      "googleDriveLink": "https://drive.google.com/file/d/1CJ6emfvqrMkYKgareQHvwi35dnU_Tm3Q/view?usp=drivesdk",
      "folder": "md-production-120423",
      "fileType": "PDF",
      "pageCount": 4,
      "module": "M1",
      "documentType": "Safety Data Response",
      "peopleMentioned": [],
      "tags": [
        "Information Request",
        "Dose 1",
        "Vertigo",
        "Clinical Study Report",
        "Vaccine Development",
        "Placebo",
        "Dose 2",
        "Vaccine Safety",
        "Vaccine Efficacy",
        "SPIKEVAX",
        "Moderna",
        "FDA Comments",
        "Lymphadenopathy",
        "Adverse Events",
        "Regulatory Submission",
        "mRNA vaccine",
        "Safety Data"
      ],
      "hasExemption": false,
      "hasExclusion": false,
      "passwordProtected": false,
      "processed": false,
      "vaccineCandidate": "mRNA-1273",
      "clinicalTrial": "COVE"
    },
    {
      "filename": "125752_S38_M1_rsp-fda-cmts-ir32-cmc-10dec2021.pdf",
      "title": "Response to FDA Comments on Information Request #32 for BLA 125752",
      "date": "10 December 2021",
      "googleDriveLink": "https://drive.google.com/file/d/1XecxIHF3qXW_ehOP444Y_z8EVMs7LQ2Y/view?usp=drivesdk",
      "folder": "md-production-120423",
      "fileType": "PDF",
      "pageCount": 7,
      "module": "M1",
      "documentType": "Regulatory response",
      "peopleMentioned": [
        "ModernaTX",
        "Inc."
      ],
      "tags": [
        "Information Request #32",
        "Biotechnology",
        "LAL procedure",
        "FDA communication",
        "COVID-19 vaccine",
        "Lipid nanoparticles (LNPs)",
        "Pharmaceutical development",
        "Vaccine manufacturing",
        "SPIKEVAX",
        "Confidential document",
        "Regulatory affairs",
        "Analytical method validation",
        "Pharmaceutical industry",
        "Quality control",
        "BLA 125752",
        "Endotoxin testing",
        "Regulatory compliance"
      ],
      "hasExemption": false,
      "hasExclusion": false,
      "passwordProtected": false,
      "processed": false,
      "vaccineCandidate": "mRNA-1273",
      "clinicalTrial": "COVE"
    },
    {
      "filename": "125752_S39_M1_cover-0039.pdf",
      "title": "Response to Information Request #36 for BLA 125752 for mRNA-1273 Vaccine",
      "date": "December 20, 2021",
      "googleDriveLink": "https://drive.google.com/file/d/1BiXc-HR8yNgCcquzAg18JVwzP47EXsZn/view?usp=drivesdk",
      "folder": "md-production-120423",
      "fileType": "PDF",
      "pageCount": 1,
      "module": "M1",
      "documentType": "Regulatory Submission",
      "peopleMentioned": [
        "Marion Gruber",
        "PhD",
        "Michelle Olsen"
      ],
      "tags": [
        "mRNA-1273",
        "Information Request",
        "FDA Submission",
        "Vaccine Development",
        "Biologics License Application",
        "COVID-19 Vaccine",
        "Messenger RNA",
        "Regulatory Affairs",
        "Regulatory Compliance",
        "Moderna",
        "Virus-free",
        "Spyware-free",
        "Lipid Nanoparticle",
        "Palo Alto Traps",
        "BLA 125752",
        "SARS-CoV-2",
        "Safety Data"
      ],
      "hasExemption": false,
      "hasExclusion": false,
      "passwordProtected": false,
      "processed": false,
      "vaccineCandidate": "mRNA-1273",
      "clinicalTrial": "COVE"
    },
    {
      "filename": "125752_S40_M1_rsp-fda-cmts-info-req39-17dec2021.pdf",
      "title": "Response to FDA Comments on Information Request #39",
      "date": "17 December 2021",
      "googleDriveLink": "https://drive.google.com/file/d/1vNz2JOMBrOKdSwOiuXdJpcoqu9qcp9NT/view?usp=drivesdk",
      "folder": "md-production-120423",
      "fileType": "PDF",
      "pageCount": 5,
      "module": "M1",
      "documentType": "Clinical Study Response",
      "peopleMentioned": [
        "ModernaTx",
        "Inc."
      ],
      "tags": [
        "mRNA-1273",
        "Information Request",
        "Dose 1",
        "Onset Day",
        "Placebo",
        "Dyspnea",
        "COVID-19 Vaccine",
        "Dose 2",
        "SPIKEVAX",
        "Underlying Conditions",
        "FDA Comments",
        "Duration",
        "Adverse Events",
        "Concomitant Medications",
        "mRNA Vaccine",
        "Study P301",
        "Safety Data",
        "Syncope"
      ],
      "hasExemption": false,
      "hasExclusion": false,
      "passwordProtected": false,
      "processed": false,
      "vaccineCandidate": "mRNA-1273",
      "clinicalTrial": "COVE"
    },
    {
      "filename": "125752_S40_M1_cover-0040.pdf",
      "title": "Response to Information Request #35, #37, and #39 for BLA 125752 for mRNA-1273 Vaccine",
      "date": "December 20, 2021",
      "googleDriveLink": "https://drive.google.com/file/d/1yYeeqontw5DKFpNoblUn44VIfzRDOXIz/view?usp=drivesdk",
      "folder": "md-production-120423",
      "fileType": "PDF",
      "pageCount": 1,
      "module": "M1",
      "documentType": "Regulatory Submission",
      "peopleMentioned": [
        "Marion Gruber",
        "PhD",
        "Michelle Olsen"
      ],
      "tags": [
        "mRNA-1273",
        "Information Request",
        "FDA Submission",
        "Vaccine Development",
        "eCTD",
        "Biologics License Application",
        "COVID-19 Vaccine",
        "Regulatory Compliance",
        "Regulatory Affairs",
        "Moderna",
        "Virus-free",
        "Spyware-free",
        "RNA Integrity",
        "Lipid Nanoparticle",
        "Palo Alto Traps",
        "SARS-CoV-2",
        "Safety Data"
      ],
      "hasExemption": false,
      "hasExclusion": false,
      "passwordProtected": false,
      "processed": false,
      "vaccineCandidate": "mRNA-1273",
      "clinicalTrial": "COVE"
    },
    {
      "filename": "125752_S33_M1_rsp-fda-cmts-info-req30-10dec2021.pdf",
      "title": "Response to FDA Comments on Information Request #30",
      "date": "10 December 2021",
      "googleDriveLink": "https://drive.google.com/file/d/1GSD5-YtK5EZjW1h6PbUZebGGOsBrxVs6/view?usp=drivesdk",
      "folder": "md-production-120423",
      "fileType": "PDF",
      "pageCount": 2,
      "module": "M1",
      "documentType": "Information Request Response",
      "peopleMentioned": [
        "ModernaTx",
        "Inc.",
        "FDA"
      ],
      "tags": [
        "mRNA-1273",
        "Information Request",
        "Immunization",
        "Facial Paralysis",
        "Pandemic Response",
        "Clinical Trial",
        "COVID-19 vaccine",
        "Vaccine Development",
        "Biotech",
        "Pharmaceutical",
        "Regulatory Affairs",
        "SPIKEVAX",
        "Medical Research",
        "Safety",
        "Adverse Events",
        "Regulatory Submission",
        "Bell's Palsy"
      ],
      "hasExemption": false,
      "hasExclusion": false,
      "passwordProtected": false,
      "processed": false,
      "vaccineCandidate": "mRNA-1273",
      "clinicalTrial": "COVE"
    },
    {
      "filename": "125752_S32_M1_rsp-fda-cmts-clin-19nov2021.pdf",
      "title": "Response to FDA Comments on Clinical Dated November 19, 2021",
      "date": "November 19, 2021",
      "googleDriveLink": "https://drive.google.com/file/d/1qtT0VgsSGHVxVE1LluZ7r3mmycUtDdjD/view?usp=drivesdk",
      "folder": "md-production-120423",
      "fileType": "PDF",
      "pageCount": 10,
      "module": "M1",
      "documentType": "Response",
      "peopleMentioned": [
        "ModernaTx",
        "Inc.",
        "CBER"
      ],
      "tags": [
        "datasets",
        "definition",
        "analysis",
        "update",
        "response",
        "fda",
        "application",
        "vaccine",
        "adverse-events",
        "submission",
        "clinical",
        "resolution",
        "safety",
        "covid-19",
        "dose",
        "moderna",
        "comments"
      ],
      "hasExemption": false,
      "hasExclusion": false,
      "passwordProtected": false,
      "processed": false,
      "vaccineCandidate": "mRNA-1273",
      "clinicalTrial": "COVE"
    },
    {
      "filename": "125752_S33_M1_cover-0033.pdf",
      "title": "Response to FDA Comments on Information Request #30",
      "date": "December 13, 2021",
      "googleDriveLink": "https://drive.google.com/file/d/1JTeAJME5EXjrWkHJTOtW1pIwXU7gmwCE/view?usp=drivesdk",
      "folder": "md-production-120423",
      "fileType": "PDF",
      "pageCount": 1,
      "module": "M1",
      "documentType": "Regulatory Submission",
      "peopleMentioned": [
        "Marion Gruber",
        "PhD",
        "Michelle Olsen"
      ],
      "tags": [
        "mRNA-1273",
        "FDA review",
        "COVID-19 vaccine",
        "Lipid nanoparticle (LNP)",
        "Biologics License Application (BLA)",
        "U.S. Food and Drug Administration (FDA)",
        "Pharmaceutical development",
        "Moderna",
        "Vaccine research and review",
        "Adverse events",
        "Messenger RNA (mRNA)",
        "Regulatory submission",
        "Center for Biologics Evaluation and Research (CBER)",
        "Vaccine development",
        "Regulatory affairs",
        "SARS-CoV-2",
        "Information request"
      ],
      "hasExemption": false,
      "hasExclusion": false,
      "passwordProtected": false,
      "processed": false,
      "vaccineCandidate": "mRNA-1273",
      "clinicalTrial": "COVE"
    },
    {
      "filename": "125752_S28_M1_rsp-fda-cmts-info-req24-30nov2021.pdf",
      "title": "Response to FDA Comments on Information Request #24 Dated November 30, 2021",
      "date": "November 30, 2021",
      "googleDriveLink": "https://drive.google.com/file/d/1uze4MiuB7Xv6PhDU7JfshFWz7BaGcCNU/view?usp=drivesdk",
      "folder": "md-production-120423",
      "fileType": "PDF",
      "pageCount": 4,
      "module": "M1",
      "documentType": "Information Request Response",
      "peopleMentioned": [
        "ModernaTx",
        "Inc."
      ],
      "tags": [
        "mRNA-1273",
        "COVID-19 symptoms",
        "data analysis",
        "COVID-19 vaccine",
        "SARS-CoV-2 infection",
        "RT-PCR",
        "N-serology",
        "SPIKEVAX",
        "vaccine efficacy",
        "clinical data",
        "FDA comments",
        "information request",
        "Per-Protocol Set",
        "blinded efficacy follow-up",
        "asymptomatic infection",
        "regulatory submission",
        "sensitivity analysis"
      ],
      "hasExemption": false,
      "hasExclusion": false,
      "passwordProtected": false,
      "processed": false,
      "vaccineCandidate": "mRNA-1273",
      "clinicalTrial": "COVE"
    },
    {
      "filename": "125752_S27_M1_cover-0027.pdf",
      "title": "Moderna BLA 125752 Sequence No. 0027 Submission",
      "date": "November 1, 2021",
      "googleDriveLink": "https://drive.google.com/file/d/1It78bur-dKY0_Ws01aTY1_HQVZS-Ru1D/view?usp=drivesdk",
      "folder": "md-production-120423",
      "fileType": "PDF",
      "pageCount": 2,
      "module": "M1",
      "documentType": "Regulatory Submission",
      "peopleMentioned": [
        "Marion Gruber",
        "PhD"
      ],
      "tags": [
        "mRNA-1273",
        "COVID-19 vaccine",
        "Biologics License Application",
        "Center for Biologics Evaluation and Research",
        "Messenger RNA",
        "Lipid Nanoparticle",
        "Moderna",
        "Coronavirus",
        "FDA",
        "Reactogenicity",
        "Adverse Events",
        "Regulatory Submission",
        "SDTM datasets",
        "Office of Vaccines Research and Review",
        "BLA 125752",
        "Solicited Symptoms",
        "SARS-CoV-2"
      ],
      "hasExemption": false,
      "hasExclusion": false,
      "passwordProtected": false,
      "processed": false,
      "vaccineCandidate": "mRNA-1273",
      "clinicalTrial": "COVE"
    },
    {
      "filename": "125752_S23_M1_cover-0023.pdf",
      "title": "Moderna BLA 125752 Sequence No. 00 Response to Information Request #19",
      "date": "November 16, 2021",
      "googleDriveLink": "https://drive.google.com/file/d/1yJx4BphN4AbiomD3udUsf0Dqmf0cmM-7/view?usp=drivesdk",
      "folder": "md-production-120423",
      "fileType": "PDF",
      "pageCount": 1,
      "module": "M1",
      "documentType": "Regulatory Submission",
      "peopleMentioned": [
        "Marion Gruber",
        "PhD",
        "Michelle Olsen"
      ],
      "tags": [
        "mRNA-1273",
        "FDA Submission",
        "Information Request",
        "mRNA-based vaccine",
        "COVID-19 vaccine",
        "eCTD",
        "Biologics License Application",
        "Regulatory Compliance",
        "Virus and Spyware Free",
        "Regulatory Affairs",
        "Moderna",
        "Safety",
        "Coronavirus",
        "Lipid Nanoparticle",
        "Palo Alto Traps",
        "BLA 125752",
        "SARS-CoV-2"
      ],
      "hasExemption": false,
      "hasExclusion": false,
      "passwordProtected": false,
      "processed": false,
      "vaccineCandidate": "mRNA-1273",
      "clinicalTrial": "COVE"
    },
    {
      "filename": "125752_S28_M1_cover-0028.pdf",
      "title": "Response to Information Request #24 regarding clinical information for mRNA-1273 BLA",
      "date": "December 2, 2021",
      "googleDriveLink": "https://drive.google.com/file/d/1UZn8-OeH3pQVdB6XP98da5zQQzIlD_Cq/view?usp=drivesdk",
      "folder": "md-production-120423",
      "fileType": "PDF",
      "pageCount": 1,
      "module": "M1",
      "documentType": "Regulatory submission",
      "peopleMentioned": [
        "Marion Gruber",
        "PhD",
        "Michelle Olsen"
      ],
      "tags": [
        "mRNA-1273",
        "regulatory affairs",
        "COVID-19 vaccine",
        "eCTD",
        "BLA",
        "messenger RNA",
        "Moderna",
        "clinical data",
        "information request",
        "FDA",
        "CBER",
        "coronavirus",
        "vaccine research and review",
        "lipid nanoparticle",
        "regulatory submission",
        "SARS-CoV-2",
        "biologics license application"
      ],
      "hasExemption": false,
      "hasExclusion": false,
      "passwordProtected": false,
      "processed": false,
      "vaccineCandidate": "mRNA-1273",
      "clinicalTrial": "COVE"
    },
    {
      "filename": "125752_S23_M1__rsp-fda-cmts-safety-10nov2021.pdf",
      "title": "Response to FDA Comments on Safety",
      "date": "10 Nov 2021",
      "googleDriveLink": "https://drive.google.com/file/d/1Q4mU3ovmKkwZWuJaYjVHhdpFrZ9HCqIJ/view?usp=drivesdk",
      "folder": "md-production-120423",
      "fileType": "PDF",
      "pageCount": 18,
      "module": "M1",
      "documentType": "Safety report",
      "peopleMentioned": [
        "ModernaTX",
        "Inc",
        "FDA"
      ],
      "tags": [
        "Vaccine response",
        "Vaccine safety",
        "COVID-19 vaccine",
        "Clinical trial data",
        "Vaccine safety monitoring",
        "Safety signal",
        "SPIKEVAX",
        "Moderna",
        "Vaccine surveillance",
        "Adverse events",
        "Postmarketing safety",
        "Herpes zoster",
        "Vaccine side effects",
        "Pharmacovigilance",
        "Vaccine development",
        "Regulatory affairs",
        "Observed-to-expected analysis"
      ],
      "hasExemption": false,
      "hasExclusion": false,
      "passwordProtected": false,
      "processed": false,
      "vaccineCandidate": "mRNA-1273",
      "clinicalTrial": "COVE"
    },
    {
      "filename": "125752_S32_M1_cover-0032.pdf",
      "title": "Updated Analyses Pertaining to Updated Datasets",
      "date": "December 10, 2021",
      "googleDriveLink": "https://drive.google.com/file/d/13XxBToI05TGwDEfyoFlQFvwcUyaDqYk7/view?usp=drivesdk",
      "folder": "md-production-120423",
      "fileType": "PDF",
      "pageCount": 1,
      "module": "M1",
      "documentType": "Regulatory Submission",
      "peopleMentioned": [
        "Marion Gruber",
        "PhD",
        "Michelle Olsen"
      ],
      "tags": [
        "mRNA-1273",
        "Adverse reactions",
        "COVID-19 vaccine",
        "eCTD",
        "Biologics License Application",
        "Messenger RNA",
        "Center for Biologics Evaluation and Research",
        "Moderna",
        "Vaccine research and review",
        "Regulatory affairs",
        "Document Control Center",
        "Regulatory strategy",
        "FDA submission",
        "Lipid nanoparticle",
        "BLA 125752",
        "Virus and spyware free",
        "SARS-CoV-2"
      ],
      "hasExemption": false,
      "hasExclusion": false,
      "passwordProtected": false,
      "processed": false,
      "vaccineCandidate": "mRNA-1273",
      "clinicalTrial": "COVE"
    },
    {
      "filename": "125752_S21_M5_real-world-effect-study-v3.pdf",
      "title": "Real-World Effect Study",
      "date": "2021",
      "googleDriveLink": "https://drive.google.com/file/d/1IswAWxkJ2lp4INvOj8qPArAz374Tzk7Q/view?usp=drivesdk",
      "folder": "md-production-120423",
      "fileType": "PDF",
      "pageCount": 41,
      "module": "M5",
      "documentType": "Study Report",
      "peopleMentioned": [],
      "tags": [
        "Data Analysis",
        "Epidemiology",
        "Biostatistics",
        "Clinical Trial",
        "Vaccine Efficacy",
        "Public Health",
        "Vaccine Development",
        "Regulatory Compliance",
        "Medical Reporting",
        "CBER",
        "Healthcare",
        "FDA",
        "Adverse Events",
        "Pharmacovigilance",
        "Real-World Study",
        "Pharmaceutical Research",
        "Immunology"
      ],
      "hasExemption": false,
      "hasExclusion": false,
      "passwordProtected": false,
      "processed": false,
      "vaccineCandidate": "mRNA-1273",
      "clinicalTrial": "COVE"
    },
    {
      "filename": "125752_S1_M1_form-3397.pdf",
      "title": "PRESCRIPTION DRUG USER FEE COVERSHEET FY 2021",
      "date": "5/27/2021",
      "googleDriveLink": "https://drive.google.com/file/d/1sHBVqVpnd9lgg439jKp2lXbr2hTVwMmc/view?usp=drivesdk",
      "folder": "md-production-120423",
      "fileType": "PDF",
      "pageCount": 8,
      "module": "M1",
      "documentType": "form",
      "peopleMentioned": [
        "Modernatx",
        "Inc."
      ],
      "tags": [
        "mRNA-1273",
        "orphan exception",
        "application",
        "BLA",
        "Moderna",
        "clinical data",
        "form",
        "user fee",
        "FDA",
        "drug distribution",
        "priority review voucher",
        "biologic product",
        "NDA",
        "OMB",
        "PDUFA",
        "prescription drug",
        "government entity"
      ],
      "hasExemption": false,
      "hasExclusion": false,
      "passwordProtected": false,
      "processed": false,
      "vaccineCandidate": "mRNA-1273",
      "clinicalTrial": "COVE"
    },
    {
      "filename": "125752_S18_M1_rsp-fda-cmts-clin-22oct2021.pdf",
      "title": "Response to FDA Comments on Clinical",
      "date": "22 October 2021",
      "googleDriveLink": "https://drive.google.com/file/d/1rWj6CPmp715l50ceSrfMuT9c4NU69Dca/view?usp=drivesdk",
      "folder": "md-production-120423",
      "fileType": "PDF",
      "pageCount": 4,
      "module": "M1",
      "documentType": "Clinical response",
      "peopleMentioned": [
        "Moderna TX",
        "Inc."
      ],
      "tags": [
        "mRNA-1273",
        "regulatory response",
        "medical research",
        "pharmaceutical development",
        "participant reported",
        "symptom log",
        "adverse event reporting",
        "FDA comments",
        "solicited adverse reactions",
        "sensitivity analysis",
        "clinical topics",
        "clinical trial data",
        "e-diary",
        "unsolicited AEs",
        "vaccine safety",
        "SARS-CoV-2",
        "COVID-19 symptoms"
      ],
      "hasExemption": false,
      "hasExclusion": false,
      "passwordProtected": false,
      "processed": false,
      "vaccineCandidate": "mRNA-1273",
      "clinicalTrial": "COVE"
    },
    {
      "filename": "125752_S20_M1_ce-mapping.pdf",
      "title": "CE Mapping",
      "date": "2020",
      "googleDriveLink": "https://drive.google.com/file/d/1MYURMUKHUEpAeQQEJ9WwXO9DQRCW9wNO/view?usp=drivesdk",
      "folder": "md-production-120423",
      "fileType": "PDF",
      "pageCount": 3,
      "module": "M1",
      "documentType": "Technical Documentation",
      "peopleMentioned": [],
      "tags": [
        "data analysis",
        "reactogenicity",
        "data standards",
        "data validation",
        "data processing",
        "data governance",
        "data visualization",
        "adverse events",
        "data quality",
        "clinical data",
        "data mapping",
        "data transformation",
        "data reporting",
        "case examples",
        "data normalization",
        "SDTM",
        "data integrity"
      ],
      "hasExemption": false,
      "hasExclusion": false,
      "passwordProtected": false,
      "processed": false,
      "vaccineCandidate": "mRNA-1273",
      "clinicalTrial": "COVE"
    },
    {
      "filename": "125752_S20_M1_cover-0020_.pdf",
      "title": "Moderna BLA 125752 Submission for mRNA-1273 Vaccine",
      "date": "November 05, 2021",
      "googleDriveLink": "https://drive.google.com/file/d/1W97SU70fsIZw2Hc3UrtEiVYx7cpTY-DL/view?usp=drivesdk",
      "folder": "md-production-120423",
      "fileType": "PDF",
      "pageCount": 2,
      "module": "M1",
      "documentType": "Meeting Minutes and Follow-up",
      "peopleMentioned": [
        "Marion Gruber",
        "PhD",
        "Michelle Olsen"
      ],
      "tags": [
        "mRNA-1273",
        "FDA Submission",
        "Datasets",
        "Teleconference",
        "Therapeutic Area User Guide",
        "Biologics License Application",
        "COVID-19 Vaccine",
        "Messenger RNA",
        "Regulatory Affairs",
        "Virus and Spyware Free",
        "Moderna",
        "eCTD Submission",
        "Meeting Minutes",
        "Adverse Events",
        "Lipid Nanoparticle",
        "BLA 125752",
        "SARS-CoV-2"
      ],
      "hasExemption": false,
      "hasExclusion": false,
      "passwordProtected": false,
      "processed": false,
      "vaccineCandidate": "mRNA-1273",
      "clinicalTrial": "COVE"
    },
    {
      "filename": "125752_S20_M1_rsp-fda-cmts-clin-28oct2021.pdf",
      "title": "Response to FDA Comments on Clinical Dated October 28, 2021",
      "date": "October 28, 2021",
      "googleDriveLink": "https://drive.google.com/file/d/1CfoaxBpL6CYlSZB5zRGbFd1E0oaczJZL/view?usp=drivesdk",
      "folder": "md-production-120423",
      "fileType": "PDF",
      "pageCount": 21,
      "module": "M1",
      "documentType": "Response",
      "peopleMentioned": [
        "Dr. Olsen"
      ],
      "tags": [
        "mRNA-1273",
        "Safety Results",
        "Clinical",
        "Information Request",
        "Pharmaceutical Industry",
        "Solicited Safety",
        "Vaccine Development",
        "Unsolicited Safety",
        "COVID-19 Vaccine",
        "Data Submission",
        "Regulatory Compliance",
        "SPIKEVAX",
        "FDA Comments",
        "Moderna TX",
        "CBER Requested Tables",
        "SDTM Define File",
        "Teleconference"
      ],
      "hasExemption": false,
      "hasExclusion": false,
      "passwordProtected": false,
      "processed": false,
      "vaccineCandidate": "mRNA-1273",
      "clinicalTrial": "COVE"
    },
    {
      "filename": "125752_S1_M1_cover-0001.pdf",
      "title": "Biologics License Application (BLA) for mRNA-1273 Vaccine",
      "date": "May 28, 2021",
      "googleDriveLink": "https://drive.google.com/file/d/14jvMtGfs1ASnEeHGyzrxFNJxHfL_7v8k/view?usp=drivesdk",
      "folder": "md-production-120423",
      "fileType": "PDF",
      "pageCount": 2,
      "module": "M1",
      "documentType": "Regulatory Submission",
      "peopleMentioned": [
        "Marion Gruber",
        "PhD",
        "Moderna"
      ],
      "tags": [
        "mRNA-1273",
        "FDA Submission",
        "Immunization",
        "Coronavirus Disease 2019",
        "Emergency Use Authorization",
        "Biologics License Application",
        "COVID-19 Vaccine",
        "Center for Biologics Evaluation and Research",
        "Messenger RNA",
        "Public Health Service Act",
        "Moderna",
        "Regulatory Affairs",
        "Vaccine Research and Review",
        "Pandemic and All-Hazards Preparedness Reauthorization Act",
        "Vaccine Indication",
        "Lipid Nanoparticle",
        "SARS-CoV-2"
      ],
      "hasExemption": false,
      "hasExclusion": false,
      "passwordProtected": false,
      "processed": false,
      "vaccineCandidate": "mRNA-1273",
      "clinicalTrial": "COVE"
    },
    {
      "filename": "125752_S21_M1_cover-0021.pdf",
      "title": "Moderna BLA 125752 Sequence No. 0021",
      "date": "November 09, 2021",
      "googleDriveLink": "https://drive.google.com/file/d/1-cQ50NA6ZqDIu4T0i6jqeaeqxLHPZFtd/view?usp=drivesdk",
      "folder": "md-production-120423",
      "fileType": "PDF",
      "pageCount": 1,
      "module": "M1",
      "documentType": "Regulatory Submission",
      "peopleMentioned": [
        "Marion Gruber",
        "PhD",
        "Michelle Olsen"
      ],
      "tags": [
        "mRNA-1273",
        "FDA Submission",
        "Clinical Responses",
        "Information Request",
        "COVID-19 vaccine",
        "Biologics License Application",
        "Center for Biologics Evaluation and Research",
        "Messenger RNA",
        "Regulatory Affairs",
        "Regulatory Compliance",
        "Moderna",
        "Vaccine Research and Review",
        "Coronavirus",
        "Real World Effectiveness Study",
        "Lipid Nanoparticle",
        "BLA 125752",
        "SARS-CoV-2"
      ],
      "hasExemption": false,
      "hasExclusion": false,
      "passwordProtected": false,
      "processed": false,
      "vaccineCandidate": "mRNA-1273",
      "clinicalTrial": "COVE"
    },
    {
      "filename": "125752_S20_M1_rsp-fda-cmts-ir11-cmc-22oct2021.pdf",
      "title": "Response to FDA Comments on CMC Received on 22 October 2021",
      "date": "22 October 2021",
      "googleDriveLink": "https://drive.google.com/file/d/1wj_C3IirTLpIpFPFHu2kQPBojlDqPBwr/view?usp=drivesdk",
      "folder": "md-production-120423",
      "fileType": "PDF",
      "pageCount": 13,
      "module": "M1",
      "documentType": "Technical Response",
      "peopleMentioned": [
        "Moderna TX",
        "Inc."
      ],
      "tags": [
        "mRNA-1273",
        "RNA Encapsulation",
        "Response Factor",
        "Vaccine Development",
        "System Suitability",
        "Biopharmaceuticals",
        "Positive Control",
        "Analytical Techniques",
        "Pharmaceutical Manufacturing",
        "FDA Comments",
        "Moderna",
        "CMC",
        "Method Development",
        "Assay Qualification",
        "Regulatory Submission",
        "Protein Expression",
        "Quality Control"
      ],
      "hasExemption": false,
      "hasExclusion": false,
      "passwordProtected": false,
      "processed": false,
      "vaccineCandidate": "mRNA-1273",
      "clinicalTrial": "COVE"
    },
    {
      "filename": "125752_S18_M1_cover-0018.pdf",
      "title": "Response to Information Request #12 for BLA 125752 for mRNA-1273 Vaccine",
      "date": "October 29, 2021",
      "googleDriveLink": "https://drive.google.com/file/d/14mQLl6Vp_Dtl8ET7Cu2Q-s_PXF-zwCP-/view?usp=drivesdk",
      "folder": "md-production-120423",
      "fileType": "PDF",
      "pageCount": 1,
      "module": "M1",
      "documentType": "Regulatory Submission",
      "peopleMentioned": [
        "Marion Gruber",
        "PhD",
        "Michelle Olsen"
      ],
      "tags": [
        "mRNA-1273",
        "Lipid nanoparticle",
        "COVID-19 vaccine",
        "Biologics License Application",
        "Messenger RNA",
        "Center for Biologics Evaluation and Research",
        "Moderna",
        "Vaccine research and review",
        "Document Control Center",
        "Regulatory strategy",
        "FDA submission",
        "Regulatory compliance",
        "Vaccine development",
        "BLA 125752",
        "Regulatory affairs",
        "SARS-CoV-2",
        "Information request"
      ],
      "hasExemption": false,
      "hasExclusion": false,
      "passwordProtected": false,
      "processed": false,
      "vaccineCandidate": "mRNA-1273",
      "clinicalTrial": "COVE"
    },
    {
      "filename": "125752_S15_M1_cover-0015.pdf",
      "title": "Letter of Authorization for BLA 125752 for mRNA-1273 Vaccine",
      "date": "October 19, 2021",
      "googleDriveLink": "https://drive.google.com/file/d/1AGMQAwYEefpUfqpnyLLJr3DanUAeZzql/view?usp=drivesdk",
      "folder": "md-production-120423",
      "fileType": "PDF",
      "pageCount": 1,
      "module": "M1",
      "documentType": "Letter",
      "peopleMentioned": [
        "Marion Gruber",
        "PhD",
        "Michelle Olsen"
      ],
      "tags": [
        "mRNA-1273",
        "COVID-19 vaccine",
        "Biologics License Application",
        "Center for Biologics Evaluation and Research",
        "Messenger RNA",
        "Letter of authorization",
        "Moderna",
        "Vaccine research and review",
        "Regulatory affairs",
        "FDA",
        "Pharmaceutical submission",
        "Lipid nanoparticle",
        "Vaccine development",
        "BLA 125752",
        "Vaccine authorization",
        "SARS-CoV-2",
        "Regulatory compliance"
      ],
      "hasExemption": false,
      "hasExclusion": false,
      "passwordProtected": false,
      "processed": false,
      "vaccineCandidate": "mRNA-1273",
      "clinicalTrial": "COVE"
    },
    {
      "filename": "125752_S16_M1_rsp-fda-cmts-ir5-group3-24sept2021.pdf",
      "title": "Response to FDA Comments on Clinical",
      "date": "24 September 2021",
      "googleDriveLink": "https://drive.google.com/file/d/16C_u-rnx6MshgWN7zzhgFB-kNogfVmDk/view?usp=drivesdk",
      "folder": "md-production-120423",
      "fileType": "PDF",
      "pageCount": 4,
      "module": "M1",
      "documentType": "Clinical response",
      "peopleMentioned": [
        "Moderna TX",
        "Inc."
      ],
      "tags": [
        "mRNA-1273",
        "data management",
        "regulatory response",
        "vaccine clinical trial",
        "regulatory compliance",
        "data analysis",
        "pharmaceutical development",
        "data quality control",
        "adverse events",
        "data quality",
        "clinical data",
        "FDA comments",
        "data categorization",
        "data standardization",
        "data reporting",
        "data consistency",
        "data integrity"
      ],
      "hasExemption": false,
      "hasExclusion": false,
      "passwordProtected": false,
      "processed": false,
      "vaccineCandidate": "mRNA-1273",
      "clinicalTrial": "COVE"
    },
    {
      "filename": "125752_S11_M1_rsp-fda-cmts-ir5-group1-24sept2021.pdf",
      "title": "Response to FDA Comments on Clinical mRNA-1273",
      "date": "24 September 2021",
      "googleDriveLink": "https://drive.google.com/file/d/13zTgmlay1960zi2RUce_5rbhJ5Rc8w_R/view?usp=drivesdk",
      "folder": "md-production-120423",
      "fileType": "PDF",
      "pageCount": 9,
      "module": "M1",
      "documentType": "Clinical response",
      "peopleMentioned": [
        "Moderna TX",
        "Inc."
      ],
      "tags": [
        "mRNA-1273",
        "regulatory compliance",
        "P301 study",
        "SDTM define file",
        "reactogenicity",
        "pharmaceutical",
        "recovered/resolved AEs",
        "vaccine development",
        "clinical response",
        "data quality",
        "FDA comments",
        "AE categorization",
        "data submission",
        "AE dataset",
        "safety analysis",
        "event duration",
        "COVID-19"
      ],
      "hasExemption": false,
      "hasExclusion": false,
      "passwordProtected": false,
      "processed": false,
      "vaccineCandidate": "mRNA-1273",
      "clinicalTrial": "COVE"
    },
    {
      "filename": "125752_S11_M1_cover-0011.pdf",
      "title": "Moderna BLA 125752 Sequence No. 0011",
      "date": "October 08, 2021",
      "googleDriveLink": "https://drive.google.com/file/d/1IU9NCVhY5yvN9lZjaNI8J_kr4Px8p392/view?usp=drivesdk",
      "folder": "md-production-120423",
      "fileType": "PDF",
      "pageCount": 2,
      "module": "M1",
      "documentType": "Regulatory Submission",
      "peopleMentioned": [
        "Marion Gruber",
        "PhD",
        "Michelle Olsen"
      ],
      "tags": [
        "mRNA-1273",
        "Adverse reactions",
        "CBER requested tables",
        "COVID-19 vaccine",
        "Biologics License Application",
        "Messenger RNA",
        "Center for Biologics Evaluation and Research",
        "Moderna",
        "Vaccine research and review",
        "Coronavirus",
        "CMC information request",
        "Regulatory submission",
        "Lipid nanoparticle",
        "U.S. Food and Drug Administration",
        "BLA 125752",
        "SARS-CoV-2",
        "Clinical information request"
      ],
      "hasExemption": false,
      "hasExclusion": false,
      "passwordProtected": false,
      "processed": false,
      "vaccineCandidate": "mRNA-1273",
      "clinicalTrial": "COVE"
    },
    {
      "filename": "125752_S11_M1_rsp-fda-cmts-ir3-cmc-23sept2021.pdf",
      "title": "Response to FDA Comments on CMC Dated 23 September 2021",
      "date": "23 September 2021",
      "googleDriveLink": "https://drive.google.com/file/d/1_aTOiN3RRapwBoWqAhEYndSvXP2Qkk1Y/view?usp=drivesdk",
      "folder": "md-production-120423",
      "fileType": "PDF",
      "pageCount": 2,
      "module": "M1",
      "documentType": "Technical Response",
      "peopleMentioned": [
        "Moderna TX",
        "Inc."
      ],
      "tags": [
        "mRNA-1273",
        "Impurities",
        "Confidential",
        "Drug Product",
        "Stability",
        "Pharmaceutical Development",
        "Biopharmaceuticals",
        "Bridging Study",
        "FDA Comments",
        "CMC",
        "Vaccine",
        "RP-HPLC",
        "Method Validation",
        "Regulatory Submission",
        "Drug Substance",
        "Quality Control",
        "Analytical Methods"
      ],
      "hasExemption": false,
      "hasExclusion": false,
      "passwordProtected": false,
      "processed": false,
      "vaccineCandidate": "mRNA-1273",
      "clinicalTrial": "COVE"
    },
    {
      "filename": "125752_S11_M1_cber-req-tables-mrna-1273.pdf",
      "title": "CBER Requested Tables mRNA -1273",
      "date": "2022",
      "googleDriveLink": "https://drive.google.com/file/d/1YdWX0z1czchCAvEdL7-jpRt6z5nPUulJ/view?usp=drivesdk",
      "folder": "md-production-120423",
      "fileType": "PDF",
      "pageCount": 184,
      "module": "M1",
      "documentType": "Clinical trial report",
      "peopleMentioned": [
        "ModernaTX",
        "Inc."
      ],
      "tags": [
        "mRNA-1273",
        "Background characteristics",
        "Disposition",
        "Adverse reactions",
        "Onset of adverse reactions",
        "CBER requested tables",
        "Solicited adverse reactions",
        "Moderna",
        "Overall safety",
        "Vaccine",
        "FDA",
        "Clinical trial",
        "Safety analysis",
        "BLA 125752",
        "Local adverse reactions",
        "Efficacy analysis",
        "Confidential"
      ],
      "hasExemption": false,
      "hasExclusion": false,
      "passwordProtected": false,
      "processed": false,
      "vaccineCandidate": "mRNA-1273",
      "clinicalTrial": "COVE"
    },
    {
      "filename": "125752_S16_M1_cover-0016.pdf",
      "title": "Response to Information Request #5, Group #3 for BLA 125752 for mRNA-1273 Vaccine",
      "date": "October 25, 2021",
      "googleDriveLink": "https://drive.google.com/file/d/1xaE3MAPYSAdctVOp4TF6ZXokGRfxDHXU/view?usp=drivesdk",
      "folder": "md-production-120423",
      "fileType": "PDF",
      "pageCount": 1,
      "module": "M1",
      "documentType": "Regulatory Submission",
      "peopleMentioned": [
        "Marion Gruber",
        "PhD",
        "Michelle Olsen"
      ],
      "tags": [
        "mRNA-1273",
        "FDA Submission",
        "Information Request",
        "Vaccine Development",
        "Biologics License Application",
        "COVID-19 Vaccine",
        "Messenger RNA",
        "Regulatory Affairs",
        "Regulatory Compliance",
        "Moderna",
        "Vaccine Research and Review",
        "Biologics Evaluation and Research",
        "Pharmaceutical Regulatory Affairs",
        "Lipid Nanoparticle",
        "Coronavirus",
        "Vaccine Technology",
        "SARS-CoV-2"
      ],
      "hasExemption": false,
      "hasExclusion": false,
      "passwordProtected": false,
      "processed": false,
      "vaccineCandidate": "mRNA-1273",
      "clinicalTrial": "COVE"
    },
    {
      "filename": "125752_S12_M1_cover-0012.pdf",
      "title": "Responses to CMC Information Requests for mRNA-1273 BLA",
      "date": "October 13, 2021",
      "googleDriveLink": "https://drive.google.com/file/d/1TPB4pA000HP9NsxdTXE8FBDBW4XG16ro/view?usp=drivesdk",
      "folder": "md-production-120423",
      "fileType": "PDF",
      "pageCount": 1,
      "module": "M1",
      "documentType": "Regulatory Submission",
      "peopleMentioned": [
        "Marion Gruber",
        "PhD",
        "Michelle Olsen"
      ],
      "tags": [
        "mRNA-1273",
        "Pandemic response",
        "COVID-19 vaccine",
        "BLA",
        "Biologics License Application",
        "Center for Biologics Evaluation and Research",
        "Messenger RNA",
        "Pharmaceutical development",
        "Moderna",
        "Vaccine research and review",
        "Vaccine technology",
        "FDA",
        "CMC information request",
        "Regulatory submission",
        "Lipid nanoparticle",
        "Regulatory affairs",
        "SARS-CoV-2"
      ],
      "hasExemption": false,
      "hasExclusion": false,
      "passwordProtected": false,
      "processed": false,
      "vaccineCandidate": "mRNA-1273",
      "clinicalTrial": "COVE"
    },
    {
      "filename": "125752_S10_M5_CRF_mrna-1273-p301-us3372005.pdf",
      "title": "Electronic Case Report Form (Site: 1273; Subject: 3372005)",
      "date": "09 Jun 2021",
      "googleDriveLink": "https://drive.google.com/file/d/1IMeUBAlQteQ-1C2c51j7-v6f8oFiDmZN/view?usp=drivesdk",
      "folder": "md-production-120224",
      "fileType": "PDF",
      "pageCount": 2706,
      "module": "M5",
      "documentType": "Electronic Case Report Form (eCRF)",
      "peopleMentioned": [
        "KC Joubran"
      ],
      "tags": [
        "mRNA-1273",
        "Demographics",
        "Visit Date",
        "Sex",
        "Palm Beach Research Center",
        "Race",
        "Clinical Trial",
        "Age",
        "Participant ID",
        "Ethnicity",
        "Protocol Amendment",
        "Informed Consent",
        "CBER",
        "Participant Enrollment",
        "FDA",
        "COVID-19",
        "Screening Form"
      ],
      "hasExemption": false,
      "hasExclusion": false,
      "passwordProtected": false,
      "processed": false,
      "vaccineCandidate": "mRNA-1273",
      "clinicalTrial": "COVE"
    },
    {
      "filename": "125752_S10_M5_CRF_mrna-1273-p301-us3372059.pdf",
      "title": "Electronic Case Report Form (Site: 1273; Subject: 3372059)",
      "date": "09 Jun 2021",
      "googleDriveLink": "https://drive.google.com/file/d/1tlJYizgHWjpq8VQSdPyAu1cc-dSLZVsW/view?usp=drivesdk",
      "folder": "md-production-120224",
      "fileType": "PDF",
      "pageCount": 3598,
      "module": "M5",
      "documentType": "Electronic Case Report Form (eCRF)",
      "peopleMentioned": [
        "KC Joubran"
      ],
      "tags": [
        "mRNA-1273",
        "visit date",
        "Palm Beach Research Center",
        "COVID-19 vaccine",
        "ethnicity",
        "race",
        "participant data",
        "date of birth",
        "enrollment",
        "CBER",
        "age",
        "demographics",
        "FDA",
        "clinical trial",
        "participant ID",
        "screening",
        "sex",
        "informed consent"
      ],
      "hasExemption": false,
      "hasExclusion": false,
      "passwordProtected": false,
      "processed": false,
      "vaccineCandidate": "mRNA-1273",
      "clinicalTrial": "COVE"
    },
    {
      "filename": "125752_S10_M5_CRF_mrna-1273-p301-us3372092.pdf",
      "title": "Electronic Case Report Form (Site: 1273; Subject: 3372092)",
      "date": "11 Aug 2021",
      "googleDriveLink": "https://drive.google.com/file/d/1v42W74euWcMXBsCyVdFjuOQZpvpmYx5G/view?usp=drivesdk",
      "folder": "md-production-120224",
      "fileType": "PDF",
      "pageCount": 1847,
      "module": "M5",
      "documentType": "Electronic Case Report Form (eCRF)",
      "peopleMentioned": [
        "KC Joubran"
      ],
      "tags": [
        "mRNA-1273",
        "ethnicity",
        "race",
        "participant data",
        "date of birth",
        "screen fail",
        "protocol amendment",
        "enrollment",
        "CBER",
        "age",
        "FDA",
        "demographics",
        "clinical trial",
        "participant ID",
        "screening form",
        "sex",
        "informed consent"
      ],
      "hasExemption": false,
      "hasExclusion": false,
      "passwordProtected": false,
      "processed": false,
      "vaccineCandidate": "mRNA-1273",
      "clinicalTrial": "COVE"
    },
    {
      "filename": "125752_S10_M5_CRF_mrna-1273-p301-us3372060.pdf",
      "title": "Electronic Case Report Form (Site: 1273; Subject: 3372060)",
      "date": "09 Jun 2021",
      "googleDriveLink": "https://drive.google.com/file/d/172gOqyJyaVAICpBxIh3aIrajx58FrHWE/view?usp=drivesdk",
      "folder": "md-production-120224",
      "fileType": "PDF",
      "pageCount": 2334,
      "module": "M5",
      "documentType": "Electronic Case Report Form (eCRF)",
      "peopleMentioned": [
        "KC Joubran"
      ],
      "tags": [
        "mRNA-1273",
        "Demographics",
        "Visit Date",
        "Race",
        "Palm Beach Research Center",
        "Sex",
        "Clinical Trial",
        "Ethnicity",
        "Participant ID",
        "Age",
        "Screen Fail",
        "Participant Creation",
        "Informed Consent",
        "CBER",
        "Participant Enrollment",
        "FDA",
        "COVID-19",
        "Screening Form"
      ],
      "hasExemption": false,
      "hasExclusion": false,
      "passwordProtected": false,
      "processed": false,
      "vaccineCandidate": "mRNA-1273",
      "clinicalTrial": "COVE"
    },
    {
      "filename": "125752_S10_M5_CRF_mrna-1273-p301-us3372089.pdf",
      "title": "Electronic Case Report Form (Site: 1273; Subject: 3372089)",
      "date": "09 Jun 2021",
      "googleDriveLink": "https://drive.google.com/file/d/1pd3ejX622h5uUxC518q6mqjUwnrcnlR4/view?usp=drivesdk",
      "folder": "md-production-120224",
      "fileType": "PDF",
      "pageCount": 2913,
      "module": "M5",
      "documentType": "Electronic Case Report Form (eCRF)",
      "peopleMentioned": [
        "KC Joubran"
      ],
      "tags": [
        "mRNA-1273",
        "Demographics",
        "Visit Date",
        "Race",
        "Palm Beach Research Center",
        "Sex",
        "Clinical Trial",
        "Ethnicity",
        "Participant ID",
        "Age",
        "Screen Fail",
        "Informed Consent",
        "CBER",
        "Participant Enrollment",
        "FDA",
        "COVID-19",
        "Enrollment",
        "Screening Form"
      ],
      "hasExemption": false,
      "hasExclusion": false,
      "passwordProtected": false,
      "processed": false,
      "vaccineCandidate": "mRNA-1273",
      "clinicalTrial": "COVE"
    },
    {
      "filename": "125752_S10_M5_CRF_mrna-1273-p301-us3372184.pdf",
      "title": "Electronic Case Report Form (Site: 1273; Subject: 3372184)",
      "date": "2021-06-09",
      "googleDriveLink": "https://drive.google.com/file/d/1DwerAW4Ansa9n1MNJjPqi6dzHztPqLYr/view?usp=drivesdk",
      "folder": "md-production-120224",
      "fileType": "PDF",
      "pageCount": 2878,
      "module": "M5",
      "documentType": "Electronic Case Report Form (eCRF)",
      "peopleMentioned": [
        "KC Joubran"
      ],
      "tags": [
        "mRNA-1273",
        "visit date",
        "Palm Beach Research Center",
        "race",
        "ethnicity",
        "participant data",
        "date of birth",
        "screen fail",
        "protocol amendment",
        "enrollment",
        "CBER",
        "FDA",
        "demographics",
        "clinical trial",
        "participant ID",
        "screening",
        "informed consent",
        "COVID-19"
      ],
      "hasExemption": false,
      "hasExclusion": false,
      "passwordProtected": false,
      "processed": false,
      "vaccineCandidate": "mRNA-1273",
      "clinicalTrial": "COVE"
    },
    {
      "filename": "125752_S10_M5_CRF_mrna-1273-p301-us3372137.pdf",
      "title": "Electronic Case Report Form (Site: 1273; Subject: 3372137)",
      "date": "09 Jun 2021",
      "googleDriveLink": "https://drive.google.com/file/d/1KrhlXY-w3JvAlDtrQB3C8a0If2MFzedY/view?usp=drivesdk",
      "folder": "md-production-120224",
      "fileType": "PDF",
      "pageCount": 2703,
      "module": "M5",
      "documentType": "Electronic Case Report Form (eCRF)",
      "peopleMentioned": [
        "KC Joubran"
      ],
      "tags": [
        "mRNA-1273",
        "Demographics",
        "Visit Date",
        "Sex",
        "Palm Beach Research Center",
        "Race",
        "Clinical Trial",
        "Age",
        "Participant ID",
        "Ethnicity",
        "Screen Fail",
        "Participant Creation",
        "Informed Consent",
        "CBER",
        "Participant Enrollment",
        "FDA",
        "COVID-19",
        "Screening Form"
      ],
      "hasExemption": false,
      "hasExclusion": false,
      "passwordProtected": false,
      "processed": false,
      "vaccineCandidate": "mRNA-1273",
      "clinicalTrial": "COVE"
    },
    {
      "filename": "125752_S10_M5_CRF_mrna-1273-p301-us3372110.pdf",
      "title": "Electronic Case Report Form (Site: 1273; Subject: 3372110)",
      "date": "11 Aug 2021",
      "googleDriveLink": "https://drive.google.com/file/d/1hcatWbTe65LF8m6Eo26cUJChUtihdjo6/view?usp=drivesdk",
      "folder": "md-production-120224",
      "fileType": "PDF",
      "pageCount": 1807,
      "module": "M5",
      "documentType": "Electronic Case Report Form (eCRF)",
      "peopleMentioned": [
        "KC Joubran"
      ],
      "tags": [
        "mRNA-1273",
        "visit date",
        "Palm Beach Research Center",
        "vaccine",
        "US3372110",
        "screen fail",
        "protocol amendment",
        "enrollment",
        "CBER",
        "demographics",
        "FDA",
        "clinical trial",
        "participant creation",
        "participant ID",
        "screening form",
        "informed consent",
        "COVID-19"
      ],
      "hasExemption": false,
      "hasExclusion": false,
      "passwordProtected": false,
      "processed": false,
      "vaccineCandidate": "mRNA-1273",
      "clinicalTrial": "COVE"
    },
    {
      "filename": "125752_S10_M5_CRF_mrna-1273-p301-us3372209.pdf",
      "title": "Electronic Case Report Form (Site: 1273; Subject: 3372209)",
      "date": "2021-06-09",
      "googleDriveLink": "https://drive.google.com/file/d/1JnbPRZmUAGg0_nVeKLX72v0hA3-_vwK8/view?usp=drivesdk",
      "folder": "md-production-120224",
      "fileType": "PDF",
      "pageCount": 2289,
      "module": "M5",
      "documentType": "Electronic Case Report Form (eCRF)",
      "peopleMentioned": [
        "KC Joubran"
      ],
      "tags": [
        "mRNA-1273",
        "Palm Beach Research Center",
        "data generation",
        "COVID-19 vaccine",
        "participant data",
        "screen fail",
        "protocol amendment",
        "enrollment",
        "CBER",
        "FDA",
        "demographics",
        "clinical trial",
        "participant ID",
        "production release",
        "screening form",
        "participant creation",
        "informed consent"
      ],
      "hasExemption": false,
      "hasExclusion": false,
      "passwordProtected": false,
      "processed": false,
      "vaccineCandidate": "mRNA-1273",
      "clinicalTrial": "COVE"
    },
    {
      "filename": "125752_S10_M5_CRF_mrna-1273-p301-us3372228.pdf",
      "title": "Electronic Case Report Form (Site: 1273; Subject: 3372228)",
      "date": "09 Jun 2021",
      "googleDriveLink": "https://drive.google.com/file/d/1Z43Clodc4XKcBBS-pW5SVRZVH8fnGvCo/view?usp=drivesdk",
      "folder": "md-production-120224",
      "fileType": "PDF",
      "pageCount": 1760,
      "module": "M5",
      "documentType": "Electronic Case Report Form (eCRF)",
      "peopleMentioned": [
        "KC Joubran"
      ],
      "tags": [
        "mRNA-1273",
        "Demographics",
        "Visit Date",
        "Palm Beach Research Center",
        "Completion Guidelines",
        "Clinical Trial",
        "EAB",
        "Vaccine Development",
        "PRODUCTION RELEASE",
        "Informed Consent",
        "CBER",
        "Participant Enrollment",
        "FDA",
        "Moderna",
        "Participant ID US3372228",
        "COVID-19",
        "Screening Form"
      ],
      "hasExemption": false,
      "hasExclusion": false,
      "passwordProtected": false,
      "processed": false,
      "vaccineCandidate": "mRNA-1273",
      "clinicalTrial": "COVE"
    },
    {
      "filename": "125752_S10_M5_CRF_mrna-1273-p301-us3372274.pdf",
      "title": "Electronic Case Report Form (Site: 1273; Subject: 3372274)",
      "date": "09 Jun 2021",
      "googleDriveLink": "https://drive.google.com/file/d/19VZnh3zG6q96Un9d_jeIXtRT1HmHlVqh/view?usp=drivesdk",
      "folder": "md-production-120224",
      "fileType": "PDF",
      "pageCount": 2564,
      "module": "M5",
      "documentType": "Electronic Case Report Form (eCRF)",
      "peopleMentioned": [
        "KC Joubran"
      ],
      "tags": [
        "mRNA-1273",
        "Palm Beach Research Center",
        "participant data",
        "vaccine",
        "screen fail",
        "protocol amendment",
        "enrollment",
        "CBER",
        "Moderna",
        "FDA",
        "demographics",
        "clinical trial",
        "participant ID",
        "production release",
        "screening form",
        "informed consent",
        "COVID-19"
      ],
      "hasExemption": false,
      "hasExclusion": false,
      "passwordProtected": false,
      "processed": false,
      "vaccineCandidate": "mRNA-1273",
      "clinicalTrial": "COVE"
    },
    {
      "filename": "125752_S10_M5_CRF_mrna-1273-p301-us3372284.pdf",
      "title": "Electronic Case Report Form (Site: 1273; Subject: 3372284)",
      "date": "09 Jun 2021",
      "googleDriveLink": "https://drive.google.com/file/d/1R8rQFQeym5eJeISy_pvtBRRuZ3A_VFiR/view?usp=drivesdk",
      "folder": "md-production-120224",
      "fileType": "PDF",
      "pageCount": 3007,
      "module": "M5",
      "documentType": "Electronic Case Report Form (eCRF)",
      "peopleMentioned": [
        "KC Joubran"
      ],
      "tags": [
        "mRNA-1273",
        "Demographics",
        "Protocol Amendment",
        "Screen Fail",
        "Palm Beach Research Center",
        "Clinical Trial",
        "Participant ID",
        "Moderna",
        "Informed Consent",
        "CBER",
        "Participant Data",
        "FDA",
        "Vaccine",
        "PRODUCTION RELEASE",
        "COVID-19",
        "Enrollment",
        "Screening Form"
      ],
      "hasExemption": false,
      "hasExclusion": false,
      "passwordProtected": false,
      "processed": false,
      "vaccineCandidate": "mRNA-1273",
      "clinicalTrial": "COVE"
    },
    {
      "filename": "125752_S10_M5_CRF_mrna-1273-p301-us3372229.pdf",
      "title": "Electronic Case Report Form (Site: 1273; Subject: 3372229)",
      "date": "2021-08-11",
      "googleDriveLink": "https://drive.google.com/file/d/1EeEIylcOoDlAWi4lP-GYXWrYMc3p2cAc/view?usp=drivesdk",
      "folder": "md-production-120224",
      "fileType": "PDF",
      "pageCount": 1891,
      "module": "M5",
      "documentType": "Electronic Case Report Form (eCRF)",
      "peopleMentioned": [
        "KC Joubran"
      ],
      "tags": [
        "mRNA-1273",
        "COVID-19 vaccine",
        "ethnicity",
        "race",
        "participant data",
        "date of birth",
        "screen fail",
        "protocol amendment",
        "enrollment",
        "CBER",
        "age",
        "FDA",
        "demographics",
        "clinical trial",
        "participant ID",
        "screening form",
        "sex",
        "informed consent"
      ],
      "hasExemption": false,
      "hasExclusion": false,
      "passwordProtected": false,
      "processed": false,
      "vaccineCandidate": "mRNA-1273",
      "clinicalTrial": "COVE"
    },
    {
      "filename": "125752_S10_M5_CRF_mrna-1273-p301-us3372348.pdf",
      "title": "Electronic Case Report Form (Site: 1273; Subject: 3372348)",
      "date": "09 Jun 2021",
      "googleDriveLink": "https://drive.google.com/file/d/1yEumW9oNVriJ8RBq6YUPvxebpxVcGT0r/view?usp=drivesdk",
      "folder": "md-production-120224",
      "fileType": "PDF",
      "pageCount": 1982,
      "module": "M5",
      "documentType": "Electronic Case Report Form (eCRF)",
      "peopleMentioned": [
        "KC Joubran"
      ],
      "tags": [
        "mRNA-1273",
        "visit date",
        "Palm Beach Research Center",
        "participant data",
        "vaccine",
        "data signing",
        "protocol amendment",
        "enrollment",
        "CBER",
        "FDA",
        "demographics",
        "clinical trial",
        "participant ID",
        "production release",
        "screening",
        "informed consent",
        "COVID-19"
      ],
      "hasExemption": false,
      "hasExclusion": false,
      "passwordProtected": false,
      "processed": false,
      "vaccineCandidate": "mRNA-1273",
      "clinicalTrial": "COVE"
    },
    {
      "filename": "125752_S10_M5_CRF_mrna-1273-p301-us3482023.pdf",
      "title": "Electronic Case Report Form (Site: 1273; Subject: 3482023)",
      "date": "09 Jun 2021",
      "googleDriveLink": "https://drive.google.com/file/d/1TzGqGHaQfpvcFXQZ_4QVCD244khDFEC3/view?usp=drivesdk",
      "folder": "md-production-120224",
      "fileType": "PDF",
      "pageCount": 2080,
      "module": "M5",
      "documentType": "Electronic Case Report Form (eCRF)",
      "peopleMentioned": [
        "KC Joubran"
      ],
      "tags": [
        "mRNA-1273",
        "visit date",
        "Emory Vaccine Center",
        "Hope Clinic",
        "data generation",
        "participant data",
        "screen fail",
        "protocol amendment",
        "enrollment",
        "CBER",
        "FDA",
        "demographics",
        "clinical trial",
        "participant ID",
        "production release",
        "screening form",
        "informed consent"
      ],
      "hasExemption": false,
      "hasExclusion": false,
      "passwordProtected": false,
      "processed": false,
      "vaccineCandidate": "mRNA-1273",
      "clinicalTrial": "COVE"
    },
    {
      "filename": "125752_S10_M5_CRF_mrna-1273-p301-us3372394.pdf",
      "title": "Electronic Case Report Form (Site: 1273; Subject: 3372394)",
      "date": "2021-06-09",
      "googleDriveLink": "https://drive.google.com/file/d/1GsMqtYuZoCGIxPeRHcjVt41fz6lHtoXL/view?usp=drivesdk",
      "folder": "md-production-120224",
      "fileType": "PDF",
      "pageCount": 2549,
      "module": "M5",
      "documentType": "Electronic Case Report Form (eCRF)",
      "peopleMentioned": [
        "KC Joubran"
      ],
      "tags": [
        "mRNA-1273",
        "visit date",
        "Palm Beach Research Center",
        "race",
        "ethnicity",
        "participant data",
        "screen fail",
        "protocol amendment",
        "enrollment",
        "CBER",
        "FDA",
        "demographics",
        "clinical trial",
        "participant ID",
        "screening",
        "informed consent",
        "COVID-19"
      ],
      "hasExemption": false,
      "hasExclusion": false,
      "passwordProtected": false,
      "processed": false,
      "vaccineCandidate": "mRNA-1273",
      "clinicalTrial": "COVE"
    },
    {
      "filename": "125752_S10_M5_CRF_mrna-1273-p301-us3482005.pdf",
      "title": "Electronic Case Report Form (Site: 1273; Subject: 3482005)",
      "date": "09 Jun 2021",
      "googleDriveLink": "https://drive.google.com/file/d/1sJFRQZm4dl0gaXXuEdsfI9LjOgYL_pKh/view?usp=drivesdk",
      "folder": "md-production-120224",
      "fileType": "PDF",
      "pageCount": 3301,
      "module": "M5",
      "documentType": "Electronic Case Report Form (eCRF)",
      "peopleMentioned": [
        "KC Joubran"
      ],
      "tags": [
        "mRNA-1273",
        "Demographics",
        "Protocol Amendment",
        "Participant Creation",
        "Screen Fail",
        "Emory Vaccine Center",
        "Clinical Trial",
        "Hope Clinic",
        "Participant ID",
        "Visit Date",
        "Race",
        "Informed Consent",
        "CBER",
        "FDA",
        "Ethnicity",
        "Enrollment",
        "Screening Form"
      ],
      "hasExemption": false,
      "hasExclusion": false,
      "passwordProtected": false,
      "processed": false,
      "vaccineCandidate": "mRNA-1273",
      "clinicalTrial": "COVE"
    },
    {
      "filename": "125752_S10_M5_CRF_mrna-1273-p301-us3482094.pdf",
      "title": "Electronic Case Report Form (Site: 1273; Subject: 3482094)",
      "date": "09 Jun 2021",
      "googleDriveLink": "https://drive.google.com/file/d/1s5codpMalvULtCftXq3nHTtukQH_kYzL/view?usp=drivesdk",
      "folder": "md-production-120224",
      "fileType": "PDF",
      "pageCount": 3781,
      "module": "M5",
      "documentType": "Electronic Case Report Form (eCRF)",
      "peopleMentioned": [
        "KC Joubran"
      ],
      "tags": [
        "mRNA-1273",
        "Emory Vaccine Center",
        "data generation",
        "COVID-19 vaccine",
        "ethnicity",
        "participant data",
        "date of birth",
        "enrollment",
        "CBER",
        "age",
        "FDA",
        "demographics",
        "clinical trial",
        "participant ID",
        "production release",
        "screening form",
        "sex",
        "informed consent"
      ],
      "hasExemption": false,
      "hasExclusion": false,
      "passwordProtected": false,
      "processed": false,
      "vaccineCandidate": "mRNA-1273",
      "clinicalTrial": "COVE"
    },
    {
      "filename": "125752_S10_M5_CRF_mrna-1273-p301-us3482064.pdf",
      "title": "Electronic Case Report Form (Site: 1273; Subject: 3482064)",
      "date": "2021-08-11",
      "googleDriveLink": "https://drive.google.com/file/d/1UZU0NBxGfd-_UFu4jTi8QqDSIeHeYrFi/view?usp=drivesdk",
      "folder": "md-production-120224",
      "fileType": "PDF",
      "pageCount": 1809,
      "module": "M5",
      "documentType": "Electronic Case Report Form (eCRF)",
      "peopleMentioned": [],
      "tags": [
        "mRNA-1273",
        "protocol amendments",
        "Emory Vaccine Center",
        "Hope Clinic",
        "COVID-19 vaccine",
        "data generation",
        "screening forms",
        "screen fail",
        "electronic data capture",
        "CBER",
        "FDA",
        "participant ID",
        "clinical trial",
        "demographics",
        "production release",
        "participant enrollment",
        "informed consent"
      ],
      "hasExemption": false,
      "hasExclusion": false,
      "passwordProtected": false,
      "processed": false,
      "vaccineCandidate": "mRNA-1273",
      "clinicalTrial": "COVE"
    },
    {
      "filename": "125752_S10_M5_CRF_mrna-1273-p301-us3482145.pdf",
      "title": "Electronic Case Report Form (Site: 1273; Subject: 3482145)",
      "date": "2021-06-09",
      "googleDriveLink": "https://drive.google.com/file/d/121YhUqL5MGppnY3TQaSWfZfGS5eJ0raG/view?usp=drivesdk",
      "folder": "md-production-120224",
      "fileType": "PDF",
      "pageCount": 3016,
      "module": "M5",
      "documentType": "Electronic Case Report Form (eCRF)",
      "peopleMentioned": [
        "KC Joubran"
      ],
      "tags": [
        "mRNA-1273",
        "visit date",
        "Emory Vaccine Center",
        "Hope Clinic",
        "race",
        "ethnicity",
        "participant data",
        "screen fail",
        "protocol amendment",
        "enrollment",
        "CBER",
        "FDA",
        "demographics",
        "clinical trial",
        "participant ID",
        "screening form",
        "informed consent"
      ],
      "hasExemption": false,
      "hasExclusion": false,
      "passwordProtected": false,
      "processed": false,
      "vaccineCandidate": "mRNA-1273",
      "clinicalTrial": "COVE"
    },
    {
      "filename": "125752_S10_M5_CRF_mrna-1273-p301-us3482240.pdf",
      "title": "Electronic Case Report Form (Site: 1273; Subject: 3482240)",
      "date": "09 Jun 2021",
      "googleDriveLink": "https://drive.google.com/file/d/1PKuV5g8g7fPerh0b_g6UPq-nUThQh6UQ/view?usp=drivesdk",
      "folder": "md-production-120224",
      "fileType": "PDF",
      "pageCount": 2288,
      "module": "M5",
      "documentType": "Electronic Case Report Form (eCRF)",
      "peopleMentioned": [
        "KC Joubran"
      ],
      "tags": [
        "Visit Date",
        "Emory Vaccine Center",
        "Clinic Visit",
        "mRNA-1273",
        "Enrollment",
        "Sex",
        "Screen Fail",
        "FDA",
        "Ethnicity",
        "Screening Form",
        "Home Visit",
        "Demographics",
        "Protocol Amendment",
        "Participant Creation",
        "Race",
        "Clinical Trial",
        "Age",
        "Participant ID",
        "Informed Consent",
        "CBER"
      ],
      "hasExemption": false,
      "hasExclusion": false,
      "passwordProtected": false,
      "processed": false,
      "vaccineCandidate": "mRNA-1273",
      "clinicalTrial": "COVE"
    },
    {
      "filename": "125752_S10_M5_CRF_mrna-1273-p301-us3482267.pdf",
      "title": "Electronic Case Report Form (Site: 1273; Subject: 3482267)",
      "date": "09 Jun 2021",
      "googleDriveLink": "https://drive.google.com/file/d/1tmtn6IFK2w5wDFK5WS65kjxGfi_2zXo_/view?usp=drivesdk",
      "folder": "md-production-120224",
      "fileType": "PDF",
      "pageCount": 3140,
      "module": "M5",
      "documentType": "Electronic Case Report Form (eCRF)",
      "peopleMentioned": [
        "KC Joubran"
      ],
      "tags": [
        "mRNA-1273",
        "visit date",
        "Emory Vaccine Center",
        "Hope Clinic",
        "participant data",
        "screen fail",
        "protocol amendment",
        "enrollment",
        "CBER",
        "FDA",
        "demographics",
        "clinical trial",
        "participant ID",
        "production release",
        "screening form",
        "vaccine development",
        "informed consent"
      ],
      "hasExemption": false,
      "hasExclusion": false,
      "passwordProtected": false,
      "processed": false,
      "vaccineCandidate": "mRNA-1273",
      "clinicalTrial": "COVE"
    },
    {
      "filename": "125752_S10_M5_CRF_mrna-1273-p301-us3482284.pdf",
      "title": "Electronic Case Report Form (Site: 1273; Subject: 3482284)",
      "date": "09 Jun 2021",
      "googleDriveLink": "https://drive.google.com/file/d/1R7ghuutPxUXKws1LMDwTdhWBnQpzrj3O/view?usp=drivesdk",
      "folder": "md-production-120224",
      "fileType": "PDF",
      "pageCount": 3802,
      "module": "M5",
      "documentType": "Electronic Case Report Form (eCRF)",
      "peopleMentioned": [
        "KC Joubran"
      ],
      "tags": [
        "mRNA-1273",
        "COVID-19 vaccine",
        "race",
        "ethnicity",
        "participant data",
        "screen fail",
        "protocol amendment",
        "enrollment",
        "CBER",
        "age",
        "demographics",
        "FDA",
        "clinical trial",
        "participant ID",
        "sex",
        "screening form",
        "Synexus Clinical Research",
        "informed consent"
      ],
      "hasExemption": false,
      "hasExclusion": false,
      "passwordProtected": false,
      "processed": false,
      "vaccineCandidate": "mRNA-1273",
      "clinicalTrial": "COVE"
    },
    {
      "filename": "125752_S10_M5_CRF_mrna-1273-p301-us3482286.pdf",
      "title": "Electronic Case Report Form (Site: 1273; Subject: 3482286)",
      "date": "2021-06-09",
      "googleDriveLink": "https://drive.google.com/file/d/1AtwKqpb0kWVX0DaknMM69E2pO40sXPZ2/view?usp=drivesdk",
      "folder": "md-production-120224",
      "fileType": "PDF",
      "pageCount": 2467,
      "module": "M5",
      "documentType": "Electronic Case Report Form (eCRF)",
      "peopleMentioned": [
        "KC Joubran"
      ],
      "tags": [
        "mRNA-1273",
        "protocol amendments",
        "visit data",
        "Emory Vaccine Center",
        "Hope Clinic",
        "COVID-19 vaccine",
        "data generation",
        "participant data",
        "enrollment",
        "CBER",
        "FDA",
        "demographics",
        "clinical trial",
        "participant ID",
        "production release",
        "screening",
        "informed consent"
      ],
      "hasExemption": false,
      "hasExclusion": false,
      "passwordProtected": false,
      "processed": false,
      "vaccineCandidate": "mRNA-1273",
      "clinicalTrial": "COVE"
    },
    {
      "filename": "125752_S10_M5_CRF_mrna-1273-p301-us3482302.pdf",
      "title": "Electronic Case Report Form (Site: 1273; Subject: 3482302)",
      "date": "09 Jun 2021",
      "googleDriveLink": "https://drive.google.com/file/d/16oRojck1Cwo_zjuM7-fBHSEt5v-9-zcn/view?usp=drivesdk",
      "folder": "md-production-120224",
      "fileType": "PDF",
      "pageCount": 3356,
      "module": "M5",
      "documentType": "Electronic Case Report Form (eCRF)",
      "peopleMentioned": [
        "KC Joubran"
      ],
      "tags": [
        "visit date",
        "Emory Vaccine Center",
        "race",
        "date of birth",
        "protocol amendment",
        "demographics",
        "mRNA-1273",
        "enrollment",
        "sex",
        "informed consent",
        "home or clinic",
        "age",
        "FDA",
        "participant ID",
        "clinical trial",
        "screening form",
        "ethnicity",
        "participant data",
        "screen fail",
        "CBER"
      ],
      "hasExemption": false,
      "hasExclusion": false,
      "passwordProtected": false,
      "processed": false,
      "vaccineCandidate": "mRNA-1273",
      "clinicalTrial": "COVE"
    },
    {
      "filename": "125752_S10_M5_CRF_mrna-1273-p301-us3492061.pdf",
      "title": "Electronic Case Report Form (Site: 1273; Subject: 3492061)",
      "date": "11 Aug 2021",
      "googleDriveLink": "https://drive.google.com/file/d/1-QglvD4IhEz0PGzB2Jae6I-BrhCU7EBc/view?usp=drivesdk",
      "folder": "md-production-120224",
      "fileType": "PDF",
      "pageCount": 1734,
      "module": "M5",
      "documentType": "Electronic Case Report Form (eCRF)",
      "peopleMentioned": [
        "KC Joubran"
      ],
      "tags": [
        "mRNA-1273",
        "Demographics",
        "Clinical Trial",
        "Vaccine Development",
        "Participant ID",
        "Randomization",
        "Project WISH",
        "Moderna",
        "Informed Consent",
        "CBER",
        "Participant Enrollment",
        "FDA",
        "Eligibility Criteria",
        "Adverse Events",
        "Blinding",
        "COVID-19",
        "Screening Form"
      ],
      "hasExemption": false,
      "hasExclusion": false,
      "passwordProtected": false,
      "processed": false,
      "vaccineCandidate": "mRNA-1273",
      "clinicalTrial": "COVE"
    },
    {
      "filename": "125752_S10_M5_CRF_mrna-1273-p301-us3492064.pdf",
      "title": "Electronic Case Report Form (Site: 1273; Subject: 3492064)",
      "date": "2021-06-10",
      "googleDriveLink": "https://drive.google.com/file/d/1uo1ElnHYh_7zbt2Yyf8dZrKCEiqzB5TQ/view?usp=drivesdk",
      "folder": "md-production-120224",
      "fileType": "PDF",
      "pageCount": 2802,
      "module": "M5",
      "documentType": "Electronic Case Report Form (eCRF)",
      "peopleMentioned": [
        "KC Joubran"
      ],
      "tags": [
        "mRNA-1273",
        "visit date",
        "race",
        "ethnicity",
        "CBER",
        "age",
        "demographics",
        "FDA",
        "clinical trial",
        "production release",
        "participant ID",
        "screening",
        "participant enrollment",
        "WISH CRS",
        "sex",
        "informed consent",
        "COVID-19"
      ],
      "hasExemption": false,
      "hasExclusion": false,
      "passwordProtected": false,
      "processed": false,
      "vaccineCandidate": "mRNA-1273",
      "clinicalTrial": "COVE"
    },
    {
      "filename": "125752_S10_M5_CRF_mrna-1273-p301-us3492078.pdf",
      "title": "Electronic Case Report Form (Site: 1273; Subject: 3492078)",
      "date": "10 Jun 2021",
      "googleDriveLink": "https://drive.google.com/file/d/1NezveZjZEfNxM2wTf0mnci1ZvvA0exTR/view?usp=drivesdk",
      "folder": "md-production-120224",
      "fileType": "PDF",
      "pageCount": 2271,
      "module": "M5",
      "documentType": "Electronic Case Report Form (eCRF)",
      "peopleMentioned": [
        "KC Joubran"
      ],
      "tags": [
        "mRNA-1273",
        "Demographics",
        "US3492078",
        "Participant Creation",
        "Clinical Trial",
        "Participant ID",
        "Visit Data",
        "Phase 3",
        "Moderna",
        "Informed Consent",
        "CBER",
        "Participant Enrollment",
        "FDA",
        "Vaccine",
        "PRODUCTION RELEASE",
        "COVID-19",
        "Screening Form"
      ],
      "hasExemption": false,
      "hasExclusion": false,
      "passwordProtected": false,
      "processed": false,
      "vaccineCandidate": "mRNA-1273",
      "clinicalTrial": "COVE"
    },
    {
      "filename": "125752_S10_M5_CRF_mrna-1273-p301-us3492085.pdf",
      "title": "Electronic Case Report Form (Site: 1273; Subject: 3492085)",
      "date": "10 Jun 2021",
      "googleDriveLink": "https://drive.google.com/file/d/15TmTN9y5ZYwDmOTV9uR57mXDfmF9TvoU/view?usp=drivesdk",
      "folder": "md-production-120224",
      "fileType": "PDF",
      "pageCount": 3296,
      "module": "M5",
      "documentType": "Electronic Case Report Form (eCRF)",
      "peopleMentioned": [
        "KC Joubran"
      ],
      "tags": [
        "mRNA-1273",
        "Demographics",
        "Visit Date",
        "Race",
        "Clinical Trial",
        "Vaccine Development",
        "Participant ID",
        "Ethnicity",
        "Project WISH",
        "CRS",
        "Moderna",
        "Informed Consent",
        "CBER",
        "Participant Enrollment",
        "FDA",
        "COVID-19",
        "Screening Form"
      ],
      "hasExemption": false,
      "hasExclusion": false,
      "passwordProtected": false,
      "processed": false,
      "vaccineCandidate": "mRNA-1273",
      "clinicalTrial": "COVE"
    },
    {
      "filename": "125752_S10_M5_CRF_mrna-1273-p301-us3492117.pdf",
      "title": "Electronic Case Report Form (Site: 1273; Subject: 3492117)",
      "date": "2021-02-15",
      "googleDriveLink": "https://drive.google.com/file/d/1hSx7PucpzV91Wl8SPPAmSeWFu1ZbTUe0/view?usp=drivesdk",
      "folder": "md-production-120224",
      "fileType": "PDF",
      "pageCount": 2318,
      "module": "M5",
      "documentType": "Electronic Case Report Form (eCRF)",
      "peopleMentioned": [
        "KC Joubran"
      ],
      "tags": [
        "mRNA-1273",
        "visit date",
        "COVID-19 vaccine",
        "race",
        "ethnicity",
        "participant data",
        "screen fail",
        "Moderna",
        "enrollment",
        "CBER",
        "protocol amendment",
        "FDA",
        "demographics",
        "clinical trial",
        "participant ID",
        "screening form",
        "informed consent"
      ],
      "hasExemption": false,
      "hasExclusion": false,
      "passwordProtected": false,
      "processed": false,
      "vaccineCandidate": "mRNA-1273",
      "clinicalTrial": "COVE"
    },
    {
      "filename": "125752_S10_M5_CRF_mrna-1273-p301-us3492107.pdf",
      "title": "Electronic Case Report Form (Site: 1273; Subject: 3492107)",
      "date": "10 Jun 2021",
      "googleDriveLink": "https://drive.google.com/file/d/1x4LhM1OXh81aEvyaB9RbgxcB0AGmQ302/view?usp=drivesdk",
      "folder": "md-production-120224",
      "fileType": "PDF",
      "pageCount": 2330,
      "module": "M5",
      "documentType": "Electronic Case Report Form (eCRF)",
      "peopleMentioned": [
        "KC Joubran"
      ],
      "tags": [
        "mRNA-1273",
        "Demographics",
        "Visit Date",
        "Sex",
        "Race",
        "Clinical Trial",
        "Vaccine Development",
        "Participant ID",
        "Age",
        "Ethnicity",
        "Moderna",
        "Informed Consent",
        "CBER",
        "Participant Enrollment",
        "FDA",
        "COVID-19",
        "Screening Form"
      ],
      "hasExemption": false,
      "hasExclusion": false,
      "passwordProtected": false,
      "processed": false,
      "vaccineCandidate": "mRNA-1273",
      "clinicalTrial": "COVE"
    },
    {
      "filename": "125752_S10_M5_CRF_mrna-1273-p301-us3492228.pdf",
      "title": "Electronic Case Report Form (Site: 1273; Subject: 3492228)",
      "date": "11 Aug 2021",
      "googleDriveLink": "https://drive.google.com/file/d/1JYO_eJuIxXL4PNmOAl88uW1PwlsRuKAN/view?usp=drivesdk",
      "folder": "md-production-120224",
      "fileType": "PDF",
      "pageCount": 1964,
      "module": "M5",
      "documentType": "Electronic Case Report Form (eCRF)",
      "peopleMentioned": [
        "KC Joubran"
      ],
      "tags": [
        "mRNA-1273",
        "visit data",
        "CRS",
        "data signing",
        "WISH",
        "protocol amendment",
        "screen fail",
        "CBER",
        "demographics",
        "FDA",
        "clinical trial",
        "production release",
        "participant creation",
        "screening",
        "participant enrollment",
        "informed consent",
        "COVID-19"
      ],
      "hasExemption": false,
      "hasExclusion": false,
      "passwordProtected": false,
      "processed": false,
      "vaccineCandidate": "mRNA-1273",
      "clinicalTrial": "COVE"
    },
    {
      "filename": "125752_S10_M5_CRF_mrna-1273-p301-us3492237.pdf",
      "title": "Electronic Case Report Form (Site: 1273; Subject: 3492237)",
      "date": "2021-08-11",
      "googleDriveLink": "https://drive.google.com/file/d/1f_yzEpeJ0sYNfgS3Z0Pt1qEhnJG9q6Cu/view?usp=drivesdk",
      "folder": "md-production-120224",
      "fileType": "PDF",
      "pageCount": 2565,
      "module": "M5",
      "documentType": "Electronic Case Report Form (eCRF)",
      "peopleMentioned": [
        "KC Joubran"
      ],
      "tags": [
        "mRNA-1273",
        "US3492237",
        "visit date",
        "inclusion/exclusion",
        "date of birth",
        "screen fail",
        "enrollment",
        "CBER",
        "demographics",
        "FDA",
        "clinical trial",
        "participant creation",
        "production release",
        "screening form",
        "WISH CRS",
        "participant ID",
        "informed consent"
      ],
      "hasExemption": false,
      "hasExclusion": false,
      "passwordProtected": false,
      "processed": false,
      "vaccineCandidate": "mRNA-1273",
      "clinicalTrial": "COVE"
    },
    {
      "filename": "125752_S10_M5_CRF_mrna-1273-p301-us3492178.pdf",
      "title": "Electronic Case Report Form (Site: 1273; Subject: 3492178)",
      "date": "10 Jun 2021",
      "googleDriveLink": "https://drive.google.com/file/d/1eBstIucWG2zmO35e6yRxZhwTHnaYIQhm/view?usp=drivesdk",
      "folder": "md-production-120224",
      "fileType": "PDF",
      "pageCount": 2246,
      "module": "M5",
      "documentType": "Electronic Case Report Form (eCRF)",
      "peopleMentioned": [
        "KC Joubran"
      ],
      "tags": [
        "mRNA-1273",
        "Demographics",
        "Visit Date",
        "Race",
        "Sex",
        "Screen Fail",
        "Clinical Trial",
        "Ethnicity",
        "Participant ID",
        "Age",
        "Participant Creation",
        "Informed Consent",
        "CBER",
        "Participant Enrollment",
        "FDA",
        "WISH CRS",
        "COVID-19",
        "Screening Form"
      ],
      "hasExemption": false,
      "hasExclusion": false,
      "passwordProtected": false,
      "processed": false,
      "vaccineCandidate": "mRNA-1273",
      "clinicalTrial": "COVE"
    },
    {
      "filename": "125752_S10_M5_CRF_mrna-1273-p301-us3492243.pdf",
      "title": "Electronic Case Report Form (Site: 1273; Subject: 3492243)",
      "date": "10 Jun 2021",
      "googleDriveLink": "https://drive.google.com/file/d/1zjAZ_tRrnbBQzVDgdYt_Zxy89q_sUy5N/view?usp=drivesdk",
      "folder": "md-production-120224",
      "fileType": "PDF",
      "pageCount": 2522,
      "module": "M5",
      "documentType": "Electronic Case Report Form (eCRF)",
      "peopleMentioned": [
        "KC Joubran"
      ],
      "tags": [
        "mRNA-1273",
        "Demographics",
        "Visit Date",
        "Race",
        "Sex",
        "Protocol Amendment",
        "Clinical Trial",
        "Ethnicity",
        "Participant ID",
        "Age",
        "Screen Fail",
        "Informed Consent",
        "CBER",
        "Participant Enrollment",
        "FDA",
        "WISH CRS",
        "COVID-19",
        "Screening Form"
      ],
      "hasExemption": false,
      "hasExclusion": false,
      "passwordProtected": false,
      "processed": false,
      "vaccineCandidate": "mRNA-1273",
      "clinicalTrial": "COVE"
    },
    {
      "filename": "125752_S10_M5_CRF_mrna-1273-p301-us3492242.pdf",
      "title": "Electronic Case Report Form (Site: 1273; Subject: 3492242)",
      "date": "2021-08-11",
      "googleDriveLink": "https://drive.google.com/file/d/11G-g4t-4Rqo0D_vmlkotbHZ81ZUy3ofA/view?usp=drivesdk",
      "folder": "md-production-120224",
      "fileType": "PDF",
      "pageCount": 2502,
      "module": "M5",
      "documentType": "Electronic Case Report Form (eCRF)",
      "peopleMentioned": [
        "KC Joubran"
      ],
      "tags": [
        "mRNA-1273",
        "visit date",
        "inclusion/exclusion",
        "race",
        "screen fail",
        "enrollment",
        "CBER",
        "demographics",
        "FDA",
        "clinical trial",
        "participant creation",
        "production release",
        "screening form",
        "WISH CRS",
        "informed consent",
        "participant ID",
        "US3492242"
      ],
      "hasExemption": false,
      "hasExclusion": false,
      "passwordProtected": false,
      "processed": false,
      "vaccineCandidate": "mRNA-1273",
      "clinicalTrial": "COVE"
    },
    {
      "filename": "125752_S10_M5_CRF_mrna-1273-p301-us3492273.pdf",
      "title": "Electronic Case Report Form (Site: 1273; Subject: 3492273)",
      "date": "15 Feb 2021",
      "googleDriveLink": "https://drive.google.com/file/d/1lJsk8PANxRsjG-9_YICleW-M3okAvoRU/view?usp=drivesdk",
      "folder": "md-production-120224",
      "fileType": "PDF",
      "pageCount": 2591,
      "module": "M5",
      "documentType": "Electronic Case Report Form (eCRF)",
      "peopleMentioned": [
        "KC Joubran"
      ],
      "tags": [
        "mRNA-1273",
        "visit date",
        "clinic visit",
        "COVID-19 vaccine",
        "data generation",
        "participant data",
        "screen fail",
        "protocol amendment",
        "enrollment",
        "CBER",
        "home visit",
        "FDA",
        "demographics",
        "clinical trial",
        "participant ID",
        "screening form",
        "informed consent"
      ],
      "hasExemption": false,
      "hasExclusion": false,
      "passwordProtected": false,
      "processed": false,
      "vaccineCandidate": "mRNA-1273",
      "clinicalTrial": "COVE"
    },
    {
      "filename": "125752_S10_M5_CRF_mrna-1273-p301-us3492281.pdf",
      "title": "Electronic Case Report Form (Site: 1273; Subject: 3492281)",
      "date": "10 Jun 2021",
      "googleDriveLink": "https://drive.google.com/file/d/13Cj3d6A2PAlgJC6gDMyFCo92RWDrmHW0/view?usp=drivesdk",
      "folder": "md-production-120224",
      "fileType": "PDF",
      "pageCount": 2196,
      "module": "M5",
      "documentType": "Electronic Case Report Form (eCRF)",
      "peopleMentioned": [
        "KC Joubran"
      ],
      "tags": [
        "Visit Date",
        "Completion Guidelines",
        "Participant Enrollment",
        "COVID-19",
        "mRNA-1273",
        "Vaccine Development",
        "Sex",
        "Project WISH",
        "FDA",
        "Ethnicity",
        "Screening Form",
        "Demographics",
        "Race",
        "Clinical Trial",
        "Age",
        "Participant ID",
        "Moderna",
        "Informed Consent",
        "CBER"
      ],
      "hasExemption": false,
      "hasExclusion": false,
      "passwordProtected": false,
      "processed": false,
      "vaccineCandidate": "mRNA-1273",
      "clinicalTrial": "COVE"
    },
    {
      "filename": "125752_S10_M5_CRF_mrna-1273-p301-us3492299.pdf",
      "title": "Electronic Case Report Form (Site: 1273; Subject: 3492299)",
      "date": "11 Aug 2021",
      "googleDriveLink": "https://drive.google.com/file/d/17gNap8hE5HD4Kl2LERpU9k1WLYg3lLj6/view?usp=drivesdk",
      "folder": "md-production-120224",
      "fileType": "PDF",
      "pageCount": 1842,
      "module": "M5",
      "documentType": "Electronic Case Report Form (eCRF)",
      "peopleMentioned": [
        "KC Joubran"
      ],
      "tags": [
        "mRNA-1273",
        "Demographics",
        "Visit Date",
        "Race",
        "Clinical Trial",
        "Ethnicity",
        "Participant ID",
        "Phase 3",
        "Moderna",
        "Informed Consent",
        "CBER",
        "Participant Enrollment",
        "FDA",
        "Vaccine",
        "WISH CRS",
        "COVID-19",
        "US3492299",
        "Screening Form"
      ],
      "hasExemption": false,
      "hasExclusion": false,
      "passwordProtected": false,
      "processed": false,
      "vaccineCandidate": "mRNA-1273",
      "clinicalTrial": "COVE"
    },
    {
      "filename": "125752_S10_M5_CRF_mrna-1273-p301-us3572027.pdf",
      "title": "Electronic Case Report Form (Site: 1273; Subject: 3572027)",
      "date": "2021-08-11",
      "googleDriveLink": "https://drive.google.com/file/d/1-hgA1Ozcp7jiwkpqUPcU8GlHvXDn11HK/view?usp=drivesdk",
      "folder": "md-production-120224",
      "fileType": "PDF",
      "pageCount": 1743,
      "module": "M5",
      "documentType": "Electronic Case Report Form (eCRF)",
      "peopleMentioned": [
        "KC Joubran"
      ],
      "tags": [
        "mRNA-1273",
        "visit date",
        "COVID-19 vaccine",
        "participant data",
        "screen fail",
        "Moderna",
        "enrollment",
        "CBER",
        "protocol amendment",
        "FDA",
        "demographics",
        "clinical trial",
        "participant ID",
        "Laguna Clinical Research Associates",
        "screening form",
        "age",
        "sex",
        "informed consent"
      ],
      "hasExemption": false,
      "hasExclusion": false,
      "passwordProtected": false,
      "processed": false,
      "vaccineCandidate": "mRNA-1273",
      "clinicalTrial": "COVE"
    },
    {
      "filename": "125752_S10_M5_CRF_mrna-1273-p301-us3572076.pdf",
      "title": "Electronic Case Report Form (Site: 1273; Subject: 3572076)",
      "date": "2021-06-10",
      "googleDriveLink": "https://drive.google.com/file/d/1oxq-pdzA9y_Q_uhgttzzs1yQbaDFJ8a5/view?usp=drivesdk",
      "folder": "md-production-120224",
      "fileType": "PDF",
      "pageCount": 2301,
      "module": "M5",
      "documentType": "Electronic Case Report Form (eCRF)",
      "peopleMentioned": [
        "KC Joubran"
      ],
      "tags": [
        "mRNA-1273",
        "FOIA",
        "participant data",
        "vaccine",
        "screen fail",
        "Moderna",
        "enrollment",
        "CBER",
        "protocol amendment",
        "demographics",
        "FDA",
        "clinical trial",
        "participant ID",
        "Laguna Clinical Research Associates",
        "screening form",
        "informed consent",
        "COVID-19"
      ],
      "hasExemption": false,
      "hasExclusion": false,
      "passwordProtected": false,
      "processed": false,
      "vaccineCandidate": "mRNA-1273",
      "clinicalTrial": "COVE"
    },
    {
      "filename": "125752_S10_M5_CRF_mrna-1273-p301-us3572086.pdf",
      "title": "Electronic Case Report Form (Site: 1273; Subject: 3572086)",
      "date": "2021-06-10",
      "googleDriveLink": "https://drive.google.com/file/d/1WCl9X9OxRHAsp9BV7PAgb19DUoUtgUSZ/view?usp=drivesdk",
      "folder": "md-production-120224",
      "fileType": "PDF",
      "pageCount": 2168,
      "module": "M5",
      "documentType": "Electronic Case Report Form (eCRF)",
      "peopleMentioned": [
        "KC Joubran"
      ],
      "tags": [
        "mRNA-1273",
        "visit date",
        "COVID-19 vaccine",
        "ethnicity",
        "race",
        "participant data",
        "Moderna",
        "enrollment",
        "age",
        "FDA",
        "demographics",
        "clinical trial",
        "participant ID",
        "Laguna Clinical Research Associates",
        "screening form",
        "sex",
        "informed consent",
        "clinical research"
      ],
      "hasExemption": false,
      "hasExclusion": false,
      "passwordProtected": false,
      "processed": false,
      "vaccineCandidate": "mRNA-1273",
      "clinicalTrial": "COVE"
    },
    {
      "filename": "125752_S10_M5_CRF_mrna-1273-p301-us3572116.pdf",
      "title": "Electronic Case Report Form (Site: 1273; Subject: 3572116)",
      "date": "2021-06-10",
      "googleDriveLink": "https://drive.google.com/file/d/1IZMqWlL3zI9GDsNX9rDpXUaF1tY05E1V/view?usp=drivesdk",
      "folder": "md-production-120224",
      "fileType": "PDF",
      "pageCount": 1858,
      "module": "M5",
      "documentType": "Electronic Case Report Form (eCRF)",
      "peopleMentioned": [
        "KC Joubran"
      ],
      "tags": [
        "mRNA-1273",
        "US3572116",
        "P301",
        "participant data",
        "vaccine",
        "screen fail",
        "Moderna",
        "enrollment",
        "CBER",
        "protocol amendment",
        "demographics",
        "FDA",
        "clinical trial",
        "Laguna Clinical Research Associates",
        "screening form",
        "informed consent",
        "COVID-19"
      ],
      "hasExemption": false,
      "hasExclusion": false,
      "passwordProtected": false,
      "processed": false,
      "vaccineCandidate": "mRNA-1273",
      "clinicalTrial": "COVE"
    },
    {
      "filename": "125752_S10_M5_CRF_mrna-1273-p301-us3572125.pdf",
      "title": "Electronic Case Report Form (Site: 1273; Subject: 3572125)",
      "date": "2021-06-10",
      "googleDriveLink": "https://drive.google.com/file/d/14dXRRO3SNae_o1IoskPhP9tbG2cXRZaw/view?usp=drivesdk",
      "folder": "md-production-120224",
      "fileType": "PDF",
      "pageCount": 2733,
      "module": "M5",
      "documentType": "Electronic Case Report Form (eCRF)",
      "peopleMentioned": [
        "KC Joubran"
      ],
      "tags": [
        "mRNA-1273",
        "P301",
        "COVID-19 vaccine",
        "US3572125",
        "participant data",
        "Moderna",
        "enrollment",
        "CBER",
        "FDA",
        "demographics",
        "clinical trial",
        "participant ID",
        "production release",
        "screening",
        "Laguna Clinical Research Associates",
        "informed consent",
        "FDA-CBER-2022-1614"
      ],
      "hasExemption": false,
      "hasExclusion": false,
      "passwordProtected": false,
      "processed": false,
      "vaccineCandidate": "mRNA-1273",
      "clinicalTrial": "COVE"
    },
    {
      "filename": "125752_S10_M5_CRF_mrna-1273-p301-us3572120.pdf",
      "title": "Electronic Case Report Form (Site: 1273; Subject: 3572120)",
      "date": "2021-06-10",
      "googleDriveLink": "https://drive.google.com/file/d/1dB0wVYrWZr60QlPYrWI3R0wy-INibz0V/view?usp=drivesdk",
      "folder": "md-production-120224",
      "fileType": "PDF",
      "pageCount": 1925,
      "module": "M5",
      "documentType": "Electronic Case Report Form (eCRF)",
      "peopleMentioned": [
        "KC Joubran"
      ],
      "tags": [
        "mRNA-1273",
        "participant data",
        "vaccine",
        "screen fail",
        "Moderna",
        "enrollment",
        "CBER",
        "protocol amendment",
        "demographics",
        "FDA",
        "clinical trial",
        "participant ID",
        "Laguna Clinical Research Associates",
        "screening form",
        "production release",
        "informed consent",
        "COVID-19"
      ],
      "hasExemption": false,
      "hasExclusion": false,
      "passwordProtected": false,
      "processed": false,
      "vaccineCandidate": "mRNA-1273",
      "clinicalTrial": "COVE"
    },
    {
      "filename": "125752_S10_M5_CRF_mrna-1273-p301-us3572181.pdf",
      "title": "Electronic Case Report Form (Site: 1273; Subject: 3572181)",
      "date": "2021-06-10",
      "googleDriveLink": "https://drive.google.com/file/d/1hFiHKR0uZ3BDU7x55QD1icGKkbqe3diT/view?usp=drivesdk",
      "folder": "md-production-120224",
      "fileType": "PDF",
      "pageCount": 2179,
      "module": "M5",
      "documentType": "Electronic Case Report Form (eCRF)",
      "peopleMentioned": [
        "KC Joubran"
      ],
      "tags": [
        "mRNA-1273",
        "medical data",
        "FOIA",
        "COVID-19 vaccine",
        "participant data",
        "Moderna",
        "enrollment",
        "CBER",
        "FDA",
        "demographics",
        "clinical trial",
        "participant ID",
        "production release",
        "screening form",
        "Laguna Clinical Research Associates",
        "informed consent",
        "clinical research"
      ],
      "hasExemption": false,
      "hasExclusion": false,
      "passwordProtected": false,
      "processed": false,
      "vaccineCandidate": "mRNA-1273",
      "clinicalTrial": "COVE"
    },
    {
      "filename": "125752_S10_M5_CRF_mrna-1273-p301-us3572170.pdf",
      "title": "Electronic Case Report Form (Site: 1273; Subject: 3572170)",
      "date": "2021-06-10",
      "googleDriveLink": "https://drive.google.com/file/d/1mVU_2Oyx24j-vfy5E3SRouBpxMp-HFL9/view?usp=drivesdk",
      "folder": "md-production-120224",
      "fileType": "PDF",
      "pageCount": 2180,
      "module": "M5",
      "documentType": "Electronic Case Report Form (eCRF)",
      "peopleMentioned": [
        "KC Joubran"
      ],
      "tags": [
        "mRNA-1273",
        "visit date",
        "race",
        "ethnicity",
        "vaccine",
        "Moderna",
        "CBER",
        "age",
        "demographics",
        "FDA",
        "clinical trial",
        "participant ID",
        "Laguna Clinical Research Associates",
        "screening form",
        "participant enrollment",
        "sex",
        "informed consent",
        "COVID-19"
      ],
      "hasExemption": false,
      "hasExclusion": false,
      "passwordProtected": false,
      "processed": false,
      "vaccineCandidate": "mRNA-1273",
      "clinicalTrial": "COVE"
    },
    {
      "filename": "125752_S10_M5_CRF_mrna-1273-p301-us3572134.pdf",
      "title": "Electronic Case Report Form (Site: 1273; Subject: 3572134)",
      "date": "2021-06-10",
      "googleDriveLink": "https://drive.google.com/file/d/1UAiBlfpafzyA1VIx8s0_wEGsFAhAfDjV/view?usp=drivesdk",
      "folder": "md-production-120224",
      "fileType": "PDF",
      "pageCount": 2945,
      "module": "M5",
      "documentType": "Electronic Case Report Form (eCRF)",
      "peopleMentioned": [
        "KC Joubran"
      ],
      "tags": [
        "mRNA-1273",
        "visit date",
        "COVID-19 vaccine",
        "race",
        "ethnicity",
        "participant data",
        "screen fail",
        "Moderna",
        "enrollment",
        "CBER",
        "protocol amendment",
        "FDA",
        "demographics",
        "clinical trial",
        "participant ID",
        "Laguna Clinical Research Associates",
        "screening form",
        "informed consent"
      ],
      "hasExemption": false,
      "hasExclusion": false,
      "passwordProtected": false,
      "processed": false,
      "vaccineCandidate": "mRNA-1273",
      "clinicalTrial": "COVE"
    },
    {
      "filename": "125752_S10_M5_CRF_mrna-1273-p301-us3572199.pdf",
      "title": "Electronic Case Report Form (Site: 1273; Subject: 3572199)",
      "date": "2021-06-10",
      "googleDriveLink": "https://drive.google.com/file/d/1yb4kMb7E-I4FxQFuSFoZBZtJcrxbGRMB/view?usp=drivesdk",
      "folder": "md-production-120224",
      "fileType": "PDF",
      "pageCount": 2699,
      "module": "M5",
      "documentType": "Electronic Case Report Form (eCRF)",
      "peopleMentioned": [
        "KC Joubran"
      ],
      "tags": [
        "mRNA-1273",
        "visit data",
        "Case Report Form (CRF)",
        "participant data",
        "vaccine",
        "Moderna",
        "enrollment",
        "CBER",
        "clinical research",
        "FDA",
        "demographics",
        "clinical trial",
        "participant ID",
        "PRODUCTION RELEASE",
        "screening",
        "informed consent",
        "COVID-19"
      ],
      "hasExemption": false,
      "hasExclusion": false,
      "passwordProtected": false,
      "processed": false,
      "vaccineCandidate": "mRNA-1273",
      "clinicalTrial": "COVE"
    },
    {
      "filename": "125752_S10_M5_CRF_mrna-1273-p301-us3572251.pdf",
      "title": "Electronic Case Report Form (Site: 1273; Subject: 3572251)",
      "date": "10 Jun 2021",
      "googleDriveLink": "https://drive.google.com/file/d/1Rg73bTva8V9fdXCvR2tYUE-WSU9Q7rpw/view?usp=drivesdk",
      "folder": "md-production-120224",
      "fileType": "PDF",
      "pageCount": 2128,
      "module": "M5",
      "documentType": "Electronic Case Report Form (eCRF)",
      "peopleMentioned": [
        "KC Joubran"
      ],
      "tags": [
        "mRNA-1273",
        "visit date",
        "race",
        "participant data",
        "vaccine",
        "Moderna",
        "enrollment",
        "CBER",
        "demographics",
        "FDA",
        "clinical trial",
        "production release",
        "Laguna Clinical Research Associates",
        "screening form",
        "participant ID",
        "informed consent",
        "COVID-19"
      ],
      "hasExemption": false,
      "hasExclusion": false,
      "passwordProtected": false,
      "processed": false,
      "vaccineCandidate": "mRNA-1273",
      "clinicalTrial": "COVE"
    },
    {
      "filename": "125752_S10_M5_CRF_mrna-1273-p301-us3622012.pdf",
      "title": "Electronic Case Report Form (Site: 1273; Subject: 3622012)",
      "date": "2020-08-11",
      "googleDriveLink": "https://drive.google.com/file/d/16nwQ86qF9MTqlroI97bm9SM8RBzHtb8V/view?usp=drivesdk",
      "folder": "md-production-120224",
      "fileType": "PDF",
      "pageCount": 693,
      "module": "M5",
      "documentType": "Electronic Case Report Form (eCRF)",
      "peopleMentioned": [
        "KC Joubran"
      ],
      "tags": [
        "mRNA-1273",
        "visit date",
        "race",
        "ethnicity",
        "vaccine",
        "protocol amendment",
        "CBER",
        "demographics",
        "FDA",
        "clinical trial",
        "participant ID",
        "screening",
        "participant enrollment",
        "University of Miami",
        "informed consent",
        "SARS-CoV-2",
        "COVID-19"
      ],
      "hasExemption": false,
      "hasExclusion": false,
      "passwordProtected": false,
      "processed": false,
      "vaccineCandidate": "mRNA-1273",
      "clinicalTrial": "COVE"
    },
    {
      "filename": "125752_S10_M5_CRF_mrna-1273-p301-us3572324.pdf",
      "title": "Electronic Case Report Form (Site: 1273; Subject: 3572324)",
      "date": "2021-08-11",
      "googleDriveLink": "https://drive.google.com/file/d/1XWr_dbxmJNxxiE2IW2ktMQFigUxP5jqW/view?usp=drivesdk",
      "folder": "md-production-120224",
      "fileType": "PDF",
      "pageCount": 2743,
      "module": "M5",
      "documentType": "Electronic Case Report Form (eCRF)",
      "peopleMentioned": [
        "KC Joubran"
      ],
      "tags": [
        "mRNA-1273",
        "visit date",
        "COVID-19 vaccine",
        "ethnicity",
        "race",
        "participant data",
        "Moderna",
        "enrollment",
        "age",
        "FDA",
        "demographics",
        "clinical trial",
        "participant ID",
        "Laguna Clinical Research Associates",
        "screening form",
        "sex",
        "informed consent",
        "clinical research"
      ],
      "hasExemption": false,
      "hasExclusion": false,
      "passwordProtected": false,
      "processed": false,
      "vaccineCandidate": "mRNA-1273",
      "clinicalTrial": "COVE"
    },
    {
      "filename": "125752_S10_M5_CRF_mrna-1273-p301-us3572330.pdf",
      "title": "Electronic Case Report Form (Site: 1273; Subject: 3572330)",
      "date": "2021-06-10",
      "googleDriveLink": "https://drive.google.com/file/d/1ByeGkKhiiZgoJk-45i7tdV5QHGrjUQOk/view?usp=drivesdk",
      "folder": "md-production-120224",
      "fileType": "PDF",
      "pageCount": 1697,
      "module": "M5",
      "documentType": "Electronic Case Report Form (eCRF)",
      "peopleMentioned": [
        "KC Joubran"
      ],
      "tags": [
        "mRNA-1273",
        "data generation",
        "COVID-19 vaccine",
        "participant data",
        "Moderna",
        "enrollment",
        "CBER",
        "time stamp",
        "FDA",
        "demographics",
        "clinical trial",
        "participant ID",
        "Laguna Clinical Research Associates",
        "screening",
        "production release",
        "protocol amendment",
        "informed consent"
      ],
      "hasExemption": false,
      "hasExclusion": false,
      "passwordProtected": false,
      "processed": false,
      "vaccineCandidate": "mRNA-1273",
      "clinicalTrial": "COVE"
    },
    {
      "filename": "125752_S10_M5_CRF_mrna-1273-p301-us3622116.pdf",
      "title": "Electronic Case Report Form (Site: 1273; Subject: 3622116)",
      "date": "10 Jun 2021",
      "googleDriveLink": "https://drive.google.com/file/d/1RYMRJJy3hWo3UIkc52SOl6CRc5NWoUcm/view?usp=drivesdk",
      "folder": "md-production-120224",
      "fileType": "PDF",
      "pageCount": 2596,
      "module": "M5",
      "documentType": "Electronic Case Report Form (eCRF)",
      "peopleMentioned": [
        "KC Joubran"
      ],
      "tags": [
        "mRNA-1273",
        "visit date",
        "COVID-19 vaccine",
        "race",
        "ethnicity",
        "Moderna",
        "enrollment",
        "CBER",
        "age",
        "demographics",
        "FDA",
        "clinical trial",
        "participant creation",
        "participant ID",
        "screening form",
        "University of Miami",
        "informed consent"
      ],
      "hasExemption": false,
      "hasExclusion": false,
      "passwordProtected": false,
      "processed": false,
      "vaccineCandidate": "mRNA-1273",
      "clinicalTrial": "COVE"
    },
    {
      "filename": "125752_S10_M5_CRF_mrna-1273-p301-us3622142.pdf",
      "title": "Electronic Case Report Form (Site: 1273; Subject: 3622142)",
      "date": "10 Jun 2021",
      "googleDriveLink": "https://drive.google.com/file/d/1xGY5dn5vccFPRVWcbMwWUOxKDKO6cG6f/view?usp=drivesdk",
      "folder": "md-production-120224",
      "fileType": "PDF",
      "pageCount": 3868,
      "module": "M5",
      "documentType": "Electronic Case Report Form (eCRF)",
      "peopleMentioned": [
        "KC Joubran"
      ],
      "tags": [
        "mRNA-1273",
        "visit date",
        "race",
        "ethnicity",
        "enrollment",
        "CBER",
        "age",
        "demographics",
        "FDA",
        "clinical trial",
        "participant creation",
        "production release",
        "screening form",
        "participant ID",
        "University of Miami",
        "informed consent",
        "COVID-19"
      ],
      "hasExemption": false,
      "hasExclusion": false,
      "passwordProtected": false,
      "processed": false,
      "vaccineCandidate": "mRNA-1273",
      "clinicalTrial": "COVE"
    },
    {
      "filename": "125752_S10_M5_CRF_mrna-1273-p301-us3622032.pdf",
      "title": "Electronic Case Report Form (Site: 1273; Subject: 3622032)",
      "date": "2020-08-22",
      "googleDriveLink": "https://drive.google.com/file/d/1uE5EcRpEL0lJ8ztlAem6XXe72vCF6L-z/view?usp=drivesdk",
      "folder": "md-production-120224",
      "fileType": "PDF",
      "pageCount": 1944,
      "module": "M5",
      "documentType": "Electronic Case Report Form (eCRF)",
      "peopleMentioned": [
        "KC Joubran"
      ],
      "tags": [
        "mRNA-1273",
        "visit date",
        "COVID-19 vaccine",
        "race",
        "ethnicity",
        "participant data",
        "screen fail",
        "Moderna",
        "enrollment",
        "CBER",
        "demographics",
        "FDA",
        "clinical trial",
        "participant ID",
        "screening form",
        "University of Miami",
        "informed consent"
      ],
      "hasExemption": false,
      "hasExclusion": false,
      "passwordProtected": false,
      "processed": false,
      "vaccineCandidate": "mRNA-1273",
      "clinicalTrial": "COVE"
    },
    {
      "filename": "125752_S10_M5_CRF_mrna-1273-p301-us3622169.pdf",
      "title": "Electronic Case Report Form (Site: 1273; Subject: 3622169)",
      "date": "10 Jun 2021",
      "googleDriveLink": "https://drive.google.com/file/d/1ISJGPRVg9QiZV0A1GjEoeSxj6laU82lj/view?usp=drivesdk",
      "folder": "md-production-120224",
      "fileType": "PDF",
      "pageCount": 2764,
      "module": "M5",
      "documentType": "Electronic Case Report Form (eCRF)",
      "peopleMentioned": [
        "KC Joubran"
      ],
      "tags": [
        "mRNA-1273",
        "visit date",
        "race",
        "ethnicity",
        "PRODUCTION RELEASE",
        "CBER",
        "age",
        "demographics",
        "FDA",
        "clinical trial",
        "participant ID",
        "sex",
        "screening form",
        "participant enrollment",
        "University of Miami",
        "informed consent",
        "COVID-19"
      ],
      "hasExemption": false,
      "hasExclusion": false,
      "passwordProtected": false,
      "processed": false,
      "vaccineCandidate": "mRNA-1273",
      "clinicalTrial": "COVE"
    },
    {
      "filename": "125752_S10_M5_CRF_mrna-1273-p301-us3622160.pdf",
      "title": "Electronic Case Report Form (Site: 1273; Subject: 3622160)",
      "date": "10 Jun 2021",
      "googleDriveLink": "https://drive.google.com/file/d/1LpG6s4GKZFVGtMzTyyU53DR9StI-Z6E8/view?usp=drivesdk",
      "folder": "md-production-120224",
      "fileType": "PDF",
      "pageCount": 2193,
      "module": "M5",
      "documentType": "Electronic Case Report Form (eCRF)",
      "peopleMentioned": [
        "KC Joubran"
      ],
      "tags": [
        "mRNA-1273",
        "Demographics",
        "Visit Date",
        "Race",
        "Sex",
        "Screen Fail",
        "Clinical Trial",
        "Ethnicity",
        "Participant ID",
        "Age",
        "Informed Consent",
        "CBER",
        "Participant Enrollment",
        "FDA",
        "Vaccine",
        "University of Miami",
        "COVID-19",
        "Screening Form"
      ],
      "hasExemption": false,
      "hasExclusion": false,
      "passwordProtected": false,
      "processed": false,
      "vaccineCandidate": "mRNA-1273",
      "clinicalTrial": "COVE"
    },
    {
      "filename": "125752_S10_M5_CRF_mrna-1273-p301-us3622197.pdf",
      "title": "Electronic Case Report Form (Site: 1273; Subject: 3622197)",
      "date": "10 Jun 2021",
      "googleDriveLink": "https://drive.google.com/file/d/1Penv8-lh2VYEUjrahGN1y-gmwnvvOnAW/view?usp=drivesdk",
      "folder": "md-production-120224",
      "fileType": "PDF",
      "pageCount": 2122,
      "module": "M5",
      "documentType": "Electronic Case Report Form (eCRF)",
      "peopleMentioned": [
        "KC Joubran"
      ],
      "tags": [
        "mRNA-1273",
        "visit date",
        "race",
        "ethnicity",
        "vaccine",
        "PRODUCTION RELEASE",
        "enrollment",
        "CBER",
        "demographics",
        "FDA",
        "clinical trial",
        "participant creation",
        "participant ID",
        "screening form",
        "University of Miami",
        "informed consent",
        "COVID-19"
      ],
      "hasExemption": false,
      "hasExclusion": false,
      "passwordProtected": false,
      "processed": false,
      "vaccineCandidate": "mRNA-1273",
      "clinicalTrial": "COVE"
    },
    {
      "filename": "125752_S10_M5_CRF_mrna-1273-p301-us3622206.pdf",
      "title": "Electronic Case Report Form (Site: 1273; Subject: 3622206)",
      "date": "26 Sep 2020",
      "googleDriveLink": "https://drive.google.com/file/d/1A464kXs_jfqt3V4-CR2rq_dTXwslVYKR/view?usp=drivesdk",
      "folder": "md-production-120224",
      "fileType": "PDF",
      "pageCount": 2228,
      "module": "M5",
      "documentType": "Electronic Case Report Form (eCRF)",
      "peopleMentioned": [
        "KC Joubran"
      ],
      "tags": [
        "mRNA-1273",
        "visit data",
        "race",
        "ethnicity",
        "PRODUCTION RELEASE",
        "CBER",
        "age",
        "demographics",
        "FDA",
        "clinical trial",
        "participant creation",
        "sex",
        "screening form",
        "participant enrollment",
        "University of Miami",
        "informed consent",
        "COVID-19"
      ],
      "hasExemption": false,
      "hasExclusion": false,
      "passwordProtected": false,
      "processed": false,
      "vaccineCandidate": "mRNA-1273",
      "clinicalTrial": "COVE"
    },
    {
      "filename": "125752_S10_M5_CRF_mrna-1273-p301-us3622211.pdf",
      "title": "Electronic Case Report Form (Site: 1273; Subject: 3622211)",
      "date": "26 Sep 2020",
      "googleDriveLink": "https://drive.google.com/file/d/178CYj7dFHgYpLhU6Ee-pg-i3ylcXBP9r/view?usp=drivesdk",
      "folder": "md-production-120224",
      "fileType": "PDF",
      "pageCount": 2395,
      "module": "M5",
      "documentType": "Electronic Case Report Form (eCRF)",
      "peopleMentioned": [
        "KC Joubran"
      ],
      "tags": [
        "mRNA-1273",
        "visit data",
        "race",
        "ethnicity",
        "CBER",
        "age",
        "demographics",
        "FDA",
        "clinical trial",
        "production release",
        "participant creation",
        "screening form",
        "participant enrollment",
        "sex",
        "University of Miami",
        "informed consent",
        "COVID-19"
      ],
      "hasExemption": false,
      "hasExclusion": false,
      "passwordProtected": false,
      "processed": false,
      "vaccineCandidate": "mRNA-1273",
      "clinicalTrial": "COVE"
    },
    {
      "filename": "125752_S3_M5_CRF_mrna-1273-p301-us3372059.pdf",
      "title": "Electronic Case Report Form (Site: 1273; Subject: 3372059)",
      "date": "2022",
      "googleDriveLink": "https://drive.google.com/file/d/19ivkFHqmhbEs20DJ46tqP32r-rx1zq-o/view?usp=drivesdk",
      "folder": "md-production-120224",
      "fileType": "PDF",
      "pageCount": 2,
      "module": "M5",
      "documentType": "Electronic Case Report Form (eCRF)",
      "peopleMentioned": [],
      "tags": [
        "mRNA-1273",
        "Immunogenicity",
        "Pandemic Response",
        "Efficacy",
        "Public Health",
        "Moderna",
        "Safety",
        "CBER",
        "Vaccine",
        "FDA",
        "Medical Innovation",
        "Adverse Events",
        "Regulatory Submission",
        "Pharmaceutical Research",
        "Clinical Trial Report",
        "Phase 3 Clinical Trial",
        "COVID-19"
      ],
      "hasExemption": false,
      "hasExclusion": false,
      "passwordProtected": false,
      "processed": false,
      "vaccineCandidate": "mRNA-1273",
      "clinicalTrial": "COVE"
    },
    {
      "filename": "125752_S10_M5_CRF_mrna-1273-p301-us3622282.pdf",
      "title": "Electronic Case Report Form (Site: 1273; Subject: 3622282)",
      "date": "2020-10-24",
      "googleDriveLink": "https://drive.google.com/file/d/1z-MppjA0vvjmfaqxp0NZ3ArocHqlJQLi/view?usp=drivesdk",
      "folder": "md-production-120224",
      "fileType": "PDF",
      "pageCount": 4817,
      "module": "M5",
      "documentType": "Electronic Case Report Form (eCRF)",
      "peopleMentioned": [
        "KC Joubran"
      ],
      "tags": [
        "mRNA-1273",
        "visit date",
        "race",
        "ethnicity",
        "vaccine",
        "enrollment",
        "CBER",
        "demographics",
        "FDA",
        "clinical trial",
        "participant creation",
        "phase 3",
        "screening form",
        "participant ID",
        "University of Miami",
        "informed consent",
        "COVID-19"
      ],
      "hasExemption": false,
      "hasExclusion": false,
      "passwordProtected": false,
      "processed": false,
      "vaccineCandidate": "mRNA-1273",
      "clinicalTrial": "COVE"
    },
    {
      "filename": "125752_S3_M5_CRF_mrna-1273-p301-us3372089.pdf",
      "title": "Electronic Case Report Form (Site: 1273; Subject: 3372089)",
      "date": "2022",
      "googleDriveLink": "https://drive.google.com/file/d/1tiV_0i4OEropGJJiLbIL1UAMpnmiujWl/view?usp=drivesdk",
      "folder": "md-production-120224",
      "fileType": "PDF",
      "pageCount": 2,
      "module": "M5",
      "documentType": "Electronic Case Report Form (eCRF)",
      "peopleMentioned": [],
      "tags": [
        "mRNA-1273",
        "FDA Submission",
        "Immunogenicity",
        "Pandemic Response",
        "Efficacy",
        "Public Health",
        "Moderna",
        "Safety",
        "CBER",
        "Vaccine",
        "Regulatory Approval",
        "Adverse Events",
        "Pharmaceutical Research",
        "Medical Innovation",
        "Phase 3 Clinical Trial",
        "Clinical Trial Data",
        "COVID-19"
      ],
      "hasExemption": false,
      "hasExclusion": false,
      "passwordProtected": false,
      "processed": false,
      "vaccineCandidate": "mRNA-1273",
      "clinicalTrial": "COVE"
    },
    {
      "filename": "125752_S3_M5_CRF_mrna-1273-p301-us3372005.pdf",
      "title": "Electronic Case Report Form (Site: 1273; Subject: 3372005)",
      "date": "2022",
      "googleDriveLink": "https://drive.google.com/file/d/1y6J7R8D77X630lyZVSEy8HydC0Jksx8-/view?usp=drivesdk",
      "folder": "md-production-120224",
      "fileType": "PDF",
      "pageCount": 2,
      "module": "M5",
      "documentType": "Electronic Case Report Form (eCRF)",
      "peopleMentioned": [],
      "tags": [
        "mRNA-1273",
        "FDA Submission",
        "Immunogenicity",
        "Pandemic Response",
        "Efficacy",
        "Infectious Disease",
        "Vaccine Development",
        "Clinical Trial",
        "Public Health",
        "Biotechnology",
        "COVID-19 Vaccine",
        "Moderna",
        "Safety",
        "Regulatory Approval",
        "Vaccine Deployment",
        "Vaccine Trials",
        "Pharmaceutical Research"
      ],
      "hasExemption": false,
      "hasExclusion": false,
      "passwordProtected": false,
      "processed": false,
      "vaccineCandidate": "mRNA-1273",
      "clinicalTrial": "COVE"
    },
    {
      "filename": "125752_S3_M5_CRF_mrna-1273-p301-us3372060.pdf",
      "title": "Electronic Case Report Form (Site: 1273; Subject: 3372060)",
      "date": "2022",
      "googleDriveLink": "https://drive.google.com/file/d/1-QiLFGpcRSnARWWqNOTOB9_hxIt9CiR_/view?usp=drivesdk",
      "folder": "md-production-120224",
      "fileType": "PDF",
      "pageCount": 2,
      "module": "M5",
      "documentType": "Electronic Case Report Form (eCRF)",
      "peopleMentioned": [],
      "tags": [
        "mRNA-1273",
        "FDA Submission",
        "Immunogenicity",
        "Pandemic Response",
        "Efficacy",
        "Public Health",
        "Moderna",
        "Safety",
        "CBER",
        "Vaccine",
        "Medical Innovation",
        "Adverse Events",
        "Regulatory Submission",
        "Pharmaceutical Research",
        "Clinical Trial Report",
        "Phase 3 Clinical Trial",
        "COVID-19"
      ],
      "hasExemption": false,
      "hasExclusion": false,
      "passwordProtected": false,
      "processed": false,
      "vaccineCandidate": "mRNA-1273",
      "clinicalTrial": "COVE"
    },
    {
      "filename": "125752_S3_M5_CRF_mrna-1273-p301-us3372110.pdf",
      "title": "Electronic Case Report Form (Site: 1273; Subject: 3372110)",
      "date": "2022",
      "googleDriveLink": "https://drive.google.com/file/d/1qfQ6zlVWYom-t5lF8J8E-cJ9gCaAzDs7/view?usp=drivesdk",
      "folder": "md-production-120224",
      "fileType": "PDF",
      "pageCount": 2,
      "module": "M5",
      "documentType": "Electronic Case Report Form (eCRF)",
      "peopleMentioned": [],
      "tags": [
        "mRNA-1273",
        "Clinical Trial",
        "Public Health",
        "Vaccine Development",
        "Vaccine Safety",
        "Regulatory Compliance",
        "Biomedical Science",
        "Moderna",
        "CBER",
        "Vaccine",
        "FDA",
        "Therapeutic Efficacy",
        "Adverse Event Monitoring",
        "Regulatory Submission",
        "Pharmaceutical Research",
        "Immunology",
        "COVID-19"
      ],
      "hasExemption": false,
      "hasExclusion": false,
      "passwordProtected": false,
      "processed": false,
      "vaccineCandidate": "mRNA-1273",
      "clinicalTrial": "COVE"
    },
    {
      "filename": "125752_S3_M5_CRF_mrna-1273-p301-us3372209.pdf",
      "title": "Electronic Case Report Form (Site: 1273; Subject: 3372209)",
      "date": "2022",
      "googleDriveLink": "https://drive.google.com/file/d/1ihEp_UBQIAyTXClymvJnqZvkxIabzLYt/view?usp=drivesdk",
      "folder": "md-production-120224",
      "fileType": "PDF",
      "pageCount": 2,
      "module": "M5",
      "documentType": "Electronic Case Report Form (eCRF)",
      "peopleMentioned": [],
      "tags": [
        "mRNA-1273",
        "Immunogenicity",
        "Pandemic Response",
        "Efficacy",
        "Public Health",
        "Moderna",
        "Safety",
        "CBER",
        "Vaccine",
        "FDA",
        "Medical Innovation",
        "Adverse Events",
        "Regulatory Submission",
        "Pharmaceutical Research",
        "Clinical Trial Report",
        "Phase 3 Clinical Trial",
        "COVID-19"
      ],
      "hasExemption": false,
      "hasExclusion": false,
      "passwordProtected": false,
      "processed": false,
      "vaccineCandidate": "mRNA-1273",
      "clinicalTrial": "COVE"
    },
    {
      "filename": "125752_S3_M5_CRF_mrna-1273-p301-us3372092.pdf",
      "title": "Electronic Case Report Form (Site: 1273; Subject: 3372092)",
      "date": "2022",
      "googleDriveLink": "https://drive.google.com/file/d/1bMHnktIK2fzGC6gF4FUtdwj1cXRilDBt/view?usp=drivesdk",
      "folder": "md-production-120224",
      "fileType": "PDF",
      "pageCount": 2,
      "module": "M5",
      "documentType": "Electronic Case Report Form (eCRF)",
      "peopleMentioned": [],
      "tags": [
        "mRNA-1273",
        "FDA Submission",
        "Immunogenicity",
        "Pandemic Response",
        "Efficacy",
        "Public Health",
        "Moderna",
        "Safety",
        "CBER",
        "Vaccine",
        "Regulatory Approval",
        "Adverse Events",
        "Pharmaceutical Research",
        "Medical Innovation",
        "Phase 3 Clinical Trial",
        "Clinical Trial Data",
        "COVID-19"
      ],
      "hasExemption": false,
      "hasExclusion": false,
      "passwordProtected": false,
      "processed": false,
      "vaccineCandidate": "mRNA-1273",
      "clinicalTrial": "COVE"
    },
    {
      "filename": "125752_S3_M5_CRF_mrna-1273-p301-us3372228.pdf",
      "title": "Electronic Case Report Form (Site: 1273; Subject: 3372228)",
      "date": "2022",
      "googleDriveLink": "https://drive.google.com/file/d/1Wyft93VSkirYLa5J_XjciaZEKMR6EQ-A/view?usp=drivesdk",
      "folder": "md-production-120224",
      "fileType": "PDF",
      "pageCount": 2,
      "module": "M5",
      "documentType": "Electronic Case Report Form (eCRF)",
      "peopleMentioned": [],
      "tags": [
        "mRNA-1273",
        "pandemic response",
        "medical research",
        "pharmaceutical industry",
        "regulatory affairs",
        "COVID-19 vaccine",
        "data analysis",
        "vaccine authorization",
        "vaccine efficacy",
        "public health",
        "CBER",
        "FDA",
        "clinical trial",
        "clinical study",
        "vaccine development",
        "vaccine safety",
        "SARS-CoV-2"
      ],
      "hasExemption": false,
      "hasExclusion": false,
      "passwordProtected": false,
      "processed": false,
      "vaccineCandidate": "mRNA-1273",
      "clinicalTrial": "COVE"
    },
    {
      "filename": "125752_S3_M5_CRF_mrna-1273-p301-us3372137.pdf",
      "title": "Electronic Case Report Form (Site: 1273; Subject: 3372137)",
      "date": "2022",
      "googleDriveLink": "https://drive.google.com/file/d/1ZMcjXnOT5YFHgfwlZWVb8sXD4PO3WpaZ/view?usp=drivesdk",
      "folder": "md-production-120224",
      "fileType": "PDF",
      "pageCount": 2,
      "module": "M5",
      "documentType": "Electronic Case Report Form (eCRF)",
      "peopleMentioned": [],
      "tags": [
        "mRNA-1273",
        "Immunogenicity",
        "Pandemic Response",
        "Efficacy",
        "Public Health",
        "Biomedical Science",
        "Moderna",
        "Safety",
        "CBER",
        "Vaccine",
        "FDA",
        "Adverse Events",
        "Regulatory Submission",
        "Pharmaceutical Research",
        "Clinical Trial Report",
        "Phase 3 Clinical Trial",
        "COVID-19"
      ],
      "hasExemption": false,
      "hasExclusion": false,
      "passwordProtected": false,
      "processed": false,
      "vaccineCandidate": "mRNA-1273",
      "clinicalTrial": "COVE"
    },
    {
      "filename": "125752_S3_M5_CRF_mrna-1273-p301-us3372229.pdf",
      "title": "Electronic Case Report Form (Site: 1273; Subject: 3372229)",
      "date": "2022",
      "googleDriveLink": "https://drive.google.com/file/d/1VkyiuXnB70SMmz1LMwQVO-YHmQNpe9Vu/view?usp=drivesdk",
      "folder": "md-production-120224",
      "fileType": "PDF",
      "pageCount": 2,
      "module": "M5",
      "documentType": "Electronic Case Report Form (eCRF)",
      "peopleMentioned": [],
      "tags": [
        "mRNA-1273",
        "Immunogenicity",
        "Pandemic Response",
        "Efficacy",
        "Public Health",
        "Moderna",
        "Safety",
        "CBER",
        "Vaccine",
        "FDA",
        "Medical Innovation",
        "Adverse Events",
        "Regulatory Submission",
        "Pharmaceutical Research",
        "Clinical Trial Report",
        "Phase 3 Clinical Trial",
        "COVID-19"
      ],
      "hasExemption": false,
      "hasExclusion": false,
      "passwordProtected": false,
      "processed": false,
      "vaccineCandidate": "mRNA-1273",
      "clinicalTrial": "COVE"
    },
    {
      "filename": "125752_S3_M5_CRF_mrna-1273-p301-us3372184.pdf",
      "title": "Electronic Case Report Form (Site: 1273; Subject: 3372184)",
      "date": "2022",
      "googleDriveLink": "https://drive.google.com/file/d/1j6QV4vOZLgYE-W1X73WJVysEzDLcLin6/view?usp=drivesdk",
      "folder": "md-production-120224",
      "fileType": "PDF",
      "pageCount": 2,
      "module": "M5",
      "documentType": "Electronic Case Report Form (eCRF)",
      "peopleMentioned": [],
      "tags": [
        "mRNA-1273",
        "FDA Submission",
        "Immunogenicity",
        "Pandemic Response",
        "Efficacy",
        "Public Health",
        "Moderna",
        "Safety",
        "CBER",
        "Vaccine",
        "Regulatory Approval",
        "Medical Countermeasures",
        "Adverse Events",
        "Pharmaceutical Research",
        "Clinical Trial Report",
        "Phase 3 Clinical Trial",
        "COVID-19"
      ],
      "hasExemption": false,
      "hasExclusion": false,
      "passwordProtected": false,
      "processed": false,
      "vaccineCandidate": "mRNA-1273",
      "clinicalTrial": "COVE"
    },
    {
      "filename": "125752_S3_M5_CRF_mrna-1273-p301-us3372284.pdf",
      "title": "Electronic Case Report Form (Site: 1273; Subject: 3372284)",
      "date": "2022",
      "googleDriveLink": "https://drive.google.com/file/d/1E_AP0SWLoN00G58xOKBvvlL4266Umkf3/view?usp=drivesdk",
      "folder": "md-production-120224",
      "fileType": "PDF",
      "pageCount": 2,
      "module": "M5",
      "documentType": "Electronic Case Report Form (eCRF)",
      "peopleMentioned": [],
      "tags": [
        "mRNA-1273",
        "Immunogenicity",
        "Pandemic Response",
        "Efficacy",
        "Public Health",
        "Biomedical Science",
        "Moderna",
        "Safety",
        "CBER",
        "Vaccine",
        "FDA",
        "Adverse Events",
        "Regulatory Submission",
        "Pharmaceutical Research",
        "Clinical Trial Report",
        "Phase 3 Clinical Trial",
        "COVID-19"
      ],
      "hasExemption": false,
      "hasExclusion": false,
      "passwordProtected": false,
      "processed": false,
      "vaccineCandidate": "mRNA-1273",
      "clinicalTrial": "COVE"
    },
    {
      "filename": "125752_S3_M5_CRF_mrna-1273-p301-us3372394.pdf",
      "title": "Electronic Case Report Form (Site: 1273; Subject: 3372394)",
      "date": "2022",
      "googleDriveLink": "https://drive.google.com/file/d/1x6J8d5uqmEFPdjaIUI7thbvVzPhPGy1v/view?usp=drivesdk",
      "folder": "md-production-120224",
      "fileType": "PDF",
      "pageCount": 2,
      "module": "M5",
      "documentType": "Electronic Case Report Form (eCRF)",
      "peopleMentioned": [],
      "tags": [
        "mRNA-1273",
        "Immunogenicity",
        "Pandemic Response",
        "Efficacy",
        "Public Health",
        "Moderna",
        "Safety",
        "CBER",
        "Vaccine",
        "FDA",
        "Medical Innovation",
        "Adverse Events",
        "Regulatory Submission",
        "Pharmaceutical Research",
        "Clinical Trial Report",
        "Phase 3 Clinical Trial",
        "COVID-19"
      ],
      "hasExemption": false,
      "hasExclusion": false,
      "passwordProtected": false,
      "processed": false,
      "vaccineCandidate": "mRNA-1273",
      "clinicalTrial": "COVE"
    },
    {
      "filename": "125752_S3_M5_CRF_mrna-1273-p301-us3372348.pdf",
      "title": "Electronic Case Report Form (Site: 1273; Subject: 3372348)",
      "date": "2022",
      "googleDriveLink": "https://drive.google.com/file/d/1Walcci84PMuzYTaesZOr1RygYVu4AFfl/view?usp=drivesdk",
      "folder": "md-production-120224",
      "fileType": "PDF",
      "pageCount": 2,
      "module": "M5",
      "documentType": "Electronic Case Report Form (eCRF)",
      "peopleMentioned": [],
      "tags": [
        "mRNA-1273",
        "FDA Submission",
        "Immunogenicity",
        "Pandemic Response",
        "Efficacy",
        "Public Health",
        "Moderna",
        "Safety",
        "CBER",
        "Vaccine",
        "Medical Innovation",
        "Adverse Events",
        "Regulatory Submission",
        "Pharmaceutical Research",
        "Clinical Trial Report",
        "Phase 3 Clinical Trial",
        "COVID-19"
      ],
      "hasExemption": false,
      "hasExclusion": false,
      "passwordProtected": false,
      "processed": false,
      "vaccineCandidate": "mRNA-1273",
      "clinicalTrial": "COVE"
    },
    {
      "filename": "125752_S3_M5_CRF_mrna-1273-p301-us3372274.pdf",
      "title": "Electronic Case Report Form (Site: 1273; Subject: 3372274)",
      "date": "2022",
      "googleDriveLink": "https://drive.google.com/file/d/1JyFCGu0iI7_Rm7IBmgcCs8UaaQDfavuM/view?usp=drivesdk",
      "folder": "md-production-120224",
      "fileType": "PDF",
      "pageCount": 2,
      "module": "M5",
      "documentType": "Electronic Case Report Form (eCRF)",
      "peopleMentioned": [],
      "tags": [
        "pandemic response",
        "medical research",
        "pharmaceutical industry",
        "vaccine authorization",
        "immunogenicity",
        "vaccine efficacy",
        "Moderna",
        "adverse events",
        "public health",
        "clinical trial",
        "SARS-CoV-2",
        "FDA submission",
        "regulatory filing",
        "vaccine development",
        "vaccine safety",
        "mRNA vaccine",
        "COVID-19"
      ],
      "hasExemption": false,
      "hasExclusion": false,
      "passwordProtected": false,
      "processed": false,
      "vaccineCandidate": "mRNA-1273",
      "clinicalTrial": "COVE"
    },
    {
      "filename": "125752_S3_M5_CRF_mrna-1273-p301-us3442031.pdf",
      "title": "Electronic Case Report Form (Site: 1273; Subject: 3442031)",
      "date": "2021-06-09",
      "googleDriveLink": "https://drive.google.com/file/d/1VRv1CAgiZFO7ICHI9bL_lnwGat6NjNIl/view?usp=drivesdk",
      "folder": "md-production-120224",
      "fileType": "PDF",
      "pageCount": 2436,
      "module": "M5",
      "documentType": "Electronic Case Report Form (eCRF)",
      "peopleMentioned": [
        "KC Joubran"
      ],
      "tags": [
        "mRNA-1273",
        "EAB",
        "Benchmark Research",
        "participant data",
        "vaccine",
        "Moderna",
        "enrollment",
        "CBER",
        "PRODUCTION RELEASE",
        "FDA",
        "demographics",
        "clinical trial",
        "US3442031",
        "screening",
        "Fort Worth",
        "informed consent",
        "COVID-19"
      ],
      "hasExemption": false,
      "hasExclusion": false,
      "passwordProtected": false,
      "processed": false,
      "vaccineCandidate": "mRNA-1273",
      "clinicalTrial": "COVE"
    },
    {
      "filename": "125752_S3_M5_CRF_mrna-1273-p301-us3442024.pdf",
      "title": "Electronic Case Report Form (Site: 1273; Subject: 3442024)",
      "date": "09 Jun 2021",
      "googleDriveLink": "https://drive.google.com/file/d/1UjoWd9Ue79a4LKGsWNlPsL2vCvV8gE7S/view?usp=drivesdk",
      "folder": "md-production-120224",
      "fileType": "PDF",
      "pageCount": 2794,
      "module": "M5",
      "documentType": "Electronic Case Report Form (eCRF)",
      "peopleMentioned": [
        "KC Joubran"
      ],
      "tags": [
        "mRNA-1273",
        "COVID-19 vaccine",
        "Benchmark Research",
        "participant data",
        "screen fail",
        "Moderna",
        "enrollment",
        "CBER",
        "protocol amendment",
        "demographics",
        "FDA",
        "clinical trial",
        "participant creation",
        "screening",
        "Fort Worth",
        "US3442024",
        "informed consent"
      ],
      "hasExemption": false,
      "hasExclusion": false,
      "passwordProtected": false,
      "processed": false,
      "vaccineCandidate": "mRNA-1273",
      "clinicalTrial": "COVE"
    },
    {
      "filename": "125752_S3_M5_CRF_mrna-1273-p301-us3442060.pdf",
      "title": "Electronic Case Report Form (Site: 1273; Subject: 3442060)",
      "date": "2021-06-09",
      "googleDriveLink": "https://drive.google.com/file/d/1QduwBr1HIJKH3lS-uOX1EYbZ2M5l1GS9/view?usp=drivesdk",
      "folder": "md-production-120224",
      "fileType": "PDF",
      "pageCount": 2300,
      "module": "M5",
      "documentType": "Electronic Case Report Form (eCRF)",
      "peopleMentioned": [
        "KC Joubran"
      ],
      "tags": [
        "mRNA-1273",
        "P301",
        "Benchmark Research",
        "participant data",
        "vaccine",
        "Moderna",
        "enrollment",
        "CBER",
        "FDA",
        "demographics",
        "clinical trial",
        "US3442060",
        "production release",
        "screening form",
        "Fort Worth",
        "informed consent",
        "COVID-19"
      ],
      "hasExemption": false,
      "hasExclusion": false,
      "passwordProtected": false,
      "processed": false,
      "vaccineCandidate": "mRNA-1273",
      "clinicalTrial": "COVE"
    },
    {
      "filename": "125752_S3_M5_CRF_mrna-1273-p301-us3442051.pdf",
      "title": "Electronic Case Report Form (Site: 1273; Subject: 3442051)",
      "date": "2021-06-09",
      "googleDriveLink": "https://drive.google.com/file/d/1uBZwTL6v7PLC7bAqt1TJNOFXTgrHWb7J/view?usp=drivesdk",
      "folder": "md-production-120224",
      "fileType": "PDF",
      "pageCount": 4391,
      "module": "M5",
      "documentType": "Electronic Case Report Form (eCRF)",
      "peopleMentioned": [
        "KC Joubran"
      ],
      "tags": [
        "mRNA-1273",
        "Benchmark Research",
        "vaccine",
        "participant data",
        "protocol amendment",
        "enrollment",
        "CBER",
        "Moderna",
        "FDA",
        "demographics",
        "clinical trial",
        "participant creation",
        "Fort Worth",
        "screening",
        "US3442051",
        "informed consent",
        "COVID-19"
      ],
      "hasExemption": false,
      "hasExclusion": false,
      "passwordProtected": false,
      "processed": false,
      "vaccineCandidate": "mRNA-1273",
      "clinicalTrial": "COVE"
    },
    {
      "filename": "125752_S3_M5_CRF_mrna-1273-p301-us3442068.pdf",
      "title": "Electronic Case Report Form (Site: 1273; Subject: 3442068)",
      "date": "2021-06-09",
      "googleDriveLink": "https://drive.google.com/file/d/1gHShva-2rT8DdNtUxRFFVJR3zQHWGkWh/view?usp=drivesdk",
      "folder": "md-production-120224",
      "fileType": "PDF",
      "pageCount": 2031,
      "module": "M5",
      "documentType": "Electronic Case Report Form (eCRF)",
      "peopleMentioned": [
        "KC Joubran"
      ],
      "tags": [
        "mRNA-1273",
        "data generation",
        "Benchmark Research",
        "participant data",
        "vaccine",
        "Moderna",
        "enrollment",
        "CBER",
        "protocol amendment",
        "FDA",
        "demographics",
        "clinical trial",
        "participant creation",
        "screening",
        "Fort Worth",
        "informed consent",
        "COVID-19"
      ],
      "hasExemption": false,
      "hasExclusion": false,
      "passwordProtected": false,
      "processed": false,
      "vaccineCandidate": "mRNA-1273",
      "clinicalTrial": "COVE"
    },
    {
      "filename": "125752_S3_M5_CRF_mrna-1273-p301-us3442074.pdf",
      "title": "Electronic Case Report Form (Site: 1273; Subject: 3442074)",
      "date": "2021-06-09",
      "googleDriveLink": "https://drive.google.com/file/d/1TU7OMDtYENoc7GxW5xhnV_Xu1s8tfvjn/view?usp=drivesdk",
      "folder": "md-production-120224",
      "fileType": "PDF",
      "pageCount": 1676,
      "module": "M5",
      "documentType": "Electronic Case Report Form (eCRF)",
      "peopleMentioned": [
        "KC Joubran"
      ],
      "tags": [
        "mRNA-1273",
        "visit date",
        "race",
        "ethnicity",
        "participant data",
        "screen fail",
        "protocol amendment",
        "enrollment",
        "CBER",
        "age",
        "FDA",
        "demographics",
        "clinical trial",
        "participant ID",
        "Moderna",
        "screening",
        "sex",
        "informed consent"
      ],
      "hasExemption": false,
      "hasExclusion": false,
      "passwordProtected": false,
      "processed": false,
      "vaccineCandidate": "mRNA-1273",
      "clinicalTrial": "COVE"
    },
    {
      "filename": "125752_S3_M5_CRF_mrna-1273-p301-us3442096.pdf",
      "title": "Electronic Case Report Form (Site: 1273; Subject: 3442096)",
      "date": "2021-08-11",
      "googleDriveLink": "https://drive.google.com/file/d/1wGdVIm-vmHsw7bwj-3F2Iyp9XG7YOElq/view?usp=drivesdk",
      "folder": "md-production-120224",
      "fileType": "PDF",
      "pageCount": 3309,
      "module": "M5",
      "documentType": "Electronic Case Report Form (eCRF)",
      "peopleMentioned": [
        "KC Joubran"
      ],
      "tags": [
        "mRNA-1273",
        "Benchmark Research",
        "participant data",
        "vaccine",
        "Moderna",
        "enrollment",
        "CBER",
        "FDA",
        "demographics",
        "clinical trial",
        "production release",
        "US3442096",
        "screening",
        "participant creation",
        "Fort Worth",
        "informed consent",
        "COVID-19"
      ],
      "hasExemption": false,
      "hasExclusion": false,
      "passwordProtected": false,
      "processed": false,
      "vaccineCandidate": "mRNA-1273",
      "clinicalTrial": "COVE"
    },
    {
      "filename": "125752_S3_M5_CRF_mrna-1273-p301-us3442087.pdf",
      "title": "Electronic Case Report Form (Site: 1273; Subject: 3442087)",
      "date": "2021-06-09",
      "googleDriveLink": "https://drive.google.com/file/d/1ERMCIGV8loypAHeouRoYqX2byA_VrnsZ/view?usp=drivesdk",
      "folder": "md-production-120224",
      "fileType": "PDF",
      "pageCount": 2573,
      "module": "M5",
      "documentType": "Electronic Case Report Form (eCRF)",
      "peopleMentioned": [
        "KC Joubran"
      ],
      "tags": [
        "visit date",
        "race",
        "protocol amendment",
        "demographics",
        "mRNA-1273",
        "enrollment",
        "sex",
        "informed consent",
        "COVID-19 vaccine",
        "age",
        "FDA",
        "participant ID",
        "clinical trial",
        "screening",
        "ethnicity",
        "participant data",
        "screen fail",
        "Moderna",
        "CBER"
      ],
      "hasExemption": false,
      "hasExclusion": false,
