Source_File,Study_OID,Study_Name,Study_Description,Protocol_Name,Define_MetadataVersion_OID,Define_MetadataVersion_Name,Define_Version,Standard_Name,Standard_Version,Dataset_OID,Dataset_Name,Dataset_SAS_Name,Dataset_Description,Dataset_Purpose,Dataset_Structure,Dataset_Class,Dataset_Source,Variable_OID,Variable_Name,Variable_Label,Variable_Data_Type,Variable_Length,Variable_SAS_Field_Name,Variable_Origin,Variable_Roles,Variable_Mandatory,Variable_Key_Sequence,Variable_Method_OID,Variable_WhereClause_OID,CodeList_OID,CodeList_Name,CodeList_Data_Type,CodeList_Coded_Values
FDA-CBER-2021-5683-1496005-1496178_27034_S1_M5_c4591001-safety-fa-eff-A-define.xml,"C4591001-Pfizer,-Inc.ADaM-IG.1.1","C4591001 Pfizer, Inc","A Phase 1/2/3 Study to Evaluate the Safety, Tolerability, Immunogenicity, and Efficacy of RNA Vaccine Candidates Against COVID-19 in Healthy Adults",C4591001 Clinical Protocol,"MDV.C4591001-Pfizer,-Inc.ADaM-IG.1.1","Study C4591001 Pfizer, Inc Data Definitions",2.0.0,ADaM-IG,1.1,IG.ADSL,ADSL,ADSL,Subject-Level Analysis Dataset,,,,,IT.ADSL.STUDYID,STUDYID,Study Identifier,text,8,STUDYID,,,True,1,,,,,,
FDA-CBER-2021-5683-1496005-1496178_27034_S1_M5_c4591001-safety-fa-eff-A-define.xml,"C4591001-Pfizer,-Inc.ADaM-IG.1.1","C4591001 Pfizer, Inc","A Phase 1/2/3 Study to Evaluate the Safety, Tolerability, Immunogenicity, and Efficacy of RNA Vaccine Candidates Against COVID-19 in Healthy Adults",C4591001 Clinical Protocol,"MDV.C4591001-Pfizer,-Inc.ADaM-IG.1.1","Study C4591001 Pfizer, Inc Data Definitions",2.0.0,ADaM-IG,1.1,IG.ADSL,ADSL,ADSL,Subject-Level Analysis Dataset,,,,,IT.ADSL.USUBJID,USUBJID,Unique Subject Identifier,text,22,USUBJID,,,True,2,,,,,,
FDA-CBER-2021-5683-1496005-1496178_27034_S1_M5_c4591001-safety-fa-eff-A-define.xml,"C4591001-Pfizer,-Inc.ADaM-IG.1.1","C4591001 Pfizer, Inc","A Phase 1/2/3 Study to Evaluate the Safety, Tolerability, Immunogenicity, and Efficacy of RNA Vaccine Candidates Against COVID-19 in Healthy Adults",C4591001 Clinical Protocol,"MDV.C4591001-Pfizer,-Inc.ADaM-IG.1.1","Study C4591001 Pfizer, Inc Data Definitions",2.0.0,ADaM-IG,1.1,IG.ADSL,ADSL,ADSL,Subject-Level Analysis Dataset,,,,,IT.ADSL.SUBJID,SUBJID,Subject Identifier for the Study,text,8,SUBJID,,,True,,,,,,,
FDA-CBER-2021-5683-1496005-1496178_27034_S1_M5_c4591001-safety-fa-eff-A-define.xml,"C4591001-Pfizer,-Inc.ADaM-IG.1.1","C4591001 Pfizer, Inc","A Phase 1/2/3 Study to Evaluate the Safety, Tolerability, Immunogenicity, and Efficacy of RNA Vaccine Candidates Against COVID-19 in Healthy Adults",C4591001 Clinical Protocol,"MDV.C4591001-Pfizer,-Inc.ADaM-IG.1.1","Study C4591001 Pfizer, Inc Data Definitions",2.0.0,ADaM-IG,1.1,IG.ADSL,ADSL,ADSL,Subject-Level Analysis Dataset,,,,,IT.ADSL.SITEID,SITEID,Study Site Identifier,text,4,SITEID,,,True,,,,,,,
FDA-CBER-2021-5683-1496005-1496178_27034_S1_M5_c4591001-safety-fa-eff-A-define.xml,"C4591001-Pfizer,-Inc.ADaM-IG.1.1","C4591001 Pfizer, Inc","A Phase 1/2/3 Study to Evaluate the Safety, Tolerability, Immunogenicity, and Efficacy of RNA Vaccine Candidates Against COVID-19 in Healthy Adults",C4591001 Clinical Protocol,"MDV.C4591001-Pfizer,-Inc.ADaM-IG.1.1","Study C4591001 Pfizer, Inc Data Definitions",2.0.0,ADaM-IG,1.1,IG.ADSL,ADSL,ADSL,Subject-Level Analysis Dataset,,,,,IT.ADSL.AGE,AGE,Age,integer,8,AGE,,,True,,,,,,,
FDA-CBER-2021-5683-1496005-1496178_27034_S1_M5_c4591001-safety-fa-eff-A-define.xml,"C4591001-Pfizer,-Inc.ADaM-IG.1.1","C4591001 Pfizer, Inc","A Phase 1/2/3 Study to Evaluate the Safety, Tolerability, Immunogenicity, and Efficacy of RNA Vaccine Candidates Against COVID-19 in Healthy Adults",C4591001 Clinical Protocol,"MDV.C4591001-Pfizer,-Inc.ADaM-IG.1.1","Study C4591001 Pfizer, Inc Data Definitions",2.0.0,ADaM-IG,1.1,IG.ADSL,ADSL,ADSL,Subject-Level Analysis Dataset,,,,,IT.ADSL.AGEU,AGEU,Age Units,text,5,AGEU,,,True,,,,CL.AGEU,AGEU,text,YEARS: Year
FDA-CBER-2021-5683-1496005-1496178_27034_S1_M5_c4591001-safety-fa-eff-A-define.xml,"C4591001-Pfizer,-Inc.ADaM-IG.1.1","C4591001 Pfizer, Inc","A Phase 1/2/3 Study to Evaluate the Safety, Tolerability, Immunogenicity, and Efficacy of RNA Vaccine Candidates Against COVID-19 in Healthy Adults",C4591001 Clinical Protocol,"MDV.C4591001-Pfizer,-Inc.ADaM-IG.1.1","Study C4591001 Pfizer, Inc Data Definitions",2.0.0,ADaM-IG,1.1,IG.ADSL,ADSL,ADSL,Subject-Level Analysis Dataset,,,,,IT.ADSL.SEX,SEX,Sex,text,1,SEX,,,True,,,,CL.SEX,SEX,text,"F: Female;
M: Male"
FDA-CBER-2021-5683-1496005-1496178_27034_S1_M5_c4591001-safety-fa-eff-A-define.xml,"C4591001-Pfizer,-Inc.ADaM-IG.1.1","C4591001 Pfizer, Inc","A Phase 1/2/3 Study to Evaluate the Safety, Tolerability, Immunogenicity, and Efficacy of RNA Vaccine Candidates Against COVID-19 in Healthy Adults",C4591001 Clinical Protocol,"MDV.C4591001-Pfizer,-Inc.ADaM-IG.1.1","Study C4591001 Pfizer, Inc Data Definitions",2.0.0,ADaM-IG,1.1,IG.ADSL,ADSL,ADSL,Subject-Level Analysis Dataset,,,,,IT.ADSL.SEXN,SEXN,Sex (N),integer,8,SEXN,,,True,,,,,,,
FDA-CBER-2021-5683-1496005-1496178_27034_S1_M5_c4591001-safety-fa-eff-A-define.xml,"C4591001-Pfizer,-Inc.ADaM-IG.1.1","C4591001 Pfizer, Inc","A Phase 1/2/3 Study to Evaluate the Safety, Tolerability, Immunogenicity, and Efficacy of RNA Vaccine Candidates Against COVID-19 in Healthy Adults",C4591001 Clinical Protocol,"MDV.C4591001-Pfizer,-Inc.ADaM-IG.1.1","Study C4591001 Pfizer, Inc Data Definitions",2.0.0,ADaM-IG,1.1,IG.ADSL,ADSL,ADSL,Subject-Level Analysis Dataset,,,,,IT.ADSL.RACE,RACE,Race,text,41,RACE,,,True,,,,CL.RACE,RACE,text,"ASIAN: Asian;
AMERICAN INDIAN OR ALASKA NATIVE: American indian or alaska native;
BLACK OR AFRICAN AMERICAN: Black or african american;
MULTIPLE: Multiple;
NATIVE HAWAIIAN OR OTHER PACIFIC ISLANDER: Native hawaiian or other pacific islander;
NOT REPORTED: Not reported;
WHITE: White"
FDA-CBER-2021-5683-1496005-1496178_27034_S1_M5_c4591001-safety-fa-eff-A-define.xml,"C4591001-Pfizer,-Inc.ADaM-IG.1.1","C4591001 Pfizer, Inc","A Phase 1/2/3 Study to Evaluate the Safety, Tolerability, Immunogenicity, and Efficacy of RNA Vaccine Candidates Against COVID-19 in Healthy Adults",C4591001 Clinical Protocol,"MDV.C4591001-Pfizer,-Inc.ADaM-IG.1.1","Study C4591001 Pfizer, Inc Data Definitions",2.0.0,ADaM-IG,1.1,IG.ADSL,ADSL,ADSL,Subject-Level Analysis Dataset,,,,,IT.ADSL.RACEN,RACEN,Race (N),integer,8,RACEN,,,True,,,,,,,
FDA-CBER-2021-5683-1496005-1496178_27034_S1_M5_c4591001-safety-fa-eff-A-define.xml,"C4591001-Pfizer,-Inc.ADaM-IG.1.1","C4591001 Pfizer, Inc","A Phase 1/2/3 Study to Evaluate the Safety, Tolerability, Immunogenicity, and Efficacy of RNA Vaccine Candidates Against COVID-19 in Healthy Adults",C4591001 Clinical Protocol,"MDV.C4591001-Pfizer,-Inc.ADaM-IG.1.1","Study C4591001 Pfizer, Inc Data Definitions",2.0.0,ADaM-IG,1.1,IG.ADSL,ADSL,ADSL,Subject-Level Analysis Dataset,,,,,IT.ADSL.ETHNIC,ETHNIC,Ethnicity,text,22,ETHNIC,,,True,,,,CL.ETHNIC,ETHNIC,text,"HISPANIC OR LATINO: Hispanic or Latino;
NOT HISPANIC OR LATINO: Not Hispanic or Latino;
NOT REPORTED: Not Reported"
FDA-CBER-2021-5683-1496005-1496178_27034_S1_M5_c4591001-safety-fa-eff-A-define.xml,"C4591001-Pfizer,-Inc.ADaM-IG.1.1","C4591001 Pfizer, Inc","A Phase 1/2/3 Study to Evaluate the Safety, Tolerability, Immunogenicity, and Efficacy of RNA Vaccine Candidates Against COVID-19 in Healthy Adults",C4591001 Clinical Protocol,"MDV.C4591001-Pfizer,-Inc.ADaM-IG.1.1","Study C4591001 Pfizer, Inc Data Definitions",2.0.0,ADaM-IG,1.1,IG.ADSL,ADSL,ADSL,Subject-Level Analysis Dataset,,,,,IT.ADSL.ETHNICN,ETHNICN,Ethnicity (N),integer,8,ETHNICN,,,True,,,,,,,
FDA-CBER-2021-5683-1496005-1496178_27034_S1_M5_c4591001-safety-fa-eff-A-define.xml,"C4591001-Pfizer,-Inc.ADaM-IG.1.1","C4591001 Pfizer, Inc","A Phase 1/2/3 Study to Evaluate the Safety, Tolerability, Immunogenicity, and Efficacy of RNA Vaccine Candidates Against COVID-19 in Healthy Adults",C4591001 Clinical Protocol,"MDV.C4591001-Pfizer,-Inc.ADaM-IG.1.1","Study C4591001 Pfizer, Inc Data Definitions",2.0.0,ADaM-IG,1.1,IG.ADSL,ADSL,ADSL,Subject-Level Analysis Dataset,,,,,IT.ADSL.COUNTRY,COUNTRY,Country,text,3,COUNTRY,,,True,,,,,,,
FDA-CBER-2021-5683-1496005-1496178_27034_S1_M5_c4591001-safety-fa-eff-A-define.xml,"C4591001-Pfizer,-Inc.ADaM-IG.1.1","C4591001 Pfizer, Inc","A Phase 1/2/3 Study to Evaluate the Safety, Tolerability, Immunogenicity, and Efficacy of RNA Vaccine Candidates Against COVID-19 in Healthy Adults",C4591001 Clinical Protocol,"MDV.C4591001-Pfizer,-Inc.ADaM-IG.1.1","Study C4591001 Pfizer, Inc Data Definitions",2.0.0,ADaM-IG,1.1,IG.ADSL,ADSL,ADSL,Subject-Level Analysis Dataset,,,,,IT.ADSL.SAFFL,SAFFL,Safety Population Flag,text,1,SAFFL,,,True,,MT.ADSL.SAFFL,,CL.NY,NY,text,"N: No;
Y: Yes"
FDA-CBER-2021-5683-1496005-1496178_27034_S1_M5_c4591001-safety-fa-eff-A-define.xml,"C4591001-Pfizer,-Inc.ADaM-IG.1.1","C4591001 Pfizer, Inc","A Phase 1/2/3 Study to Evaluate the Safety, Tolerability, Immunogenicity, and Efficacy of RNA Vaccine Candidates Against COVID-19 in Healthy Adults",C4591001 Clinical Protocol,"MDV.C4591001-Pfizer,-Inc.ADaM-IG.1.1","Study C4591001 Pfizer, Inc Data Definitions",2.0.0,ADaM-IG,1.1,IG.ADSL,ADSL,ADSL,Subject-Level Analysis Dataset,,,,,IT.ADSL.RANDFL,RANDFL,Randomized Population Flag,text,1,RANDFL,,,True,,MT.ADSL.RANDFL,,CL.NY,NY,text,"N: No;
Y: Yes"
FDA-CBER-2021-5683-1496005-1496178_27034_S1_M5_c4591001-safety-fa-eff-A-define.xml,"C4591001-Pfizer,-Inc.ADaM-IG.1.1","C4591001 Pfizer, Inc","A Phase 1/2/3 Study to Evaluate the Safety, Tolerability, Immunogenicity, and Efficacy of RNA Vaccine Candidates Against COVID-19 in Healthy Adults",C4591001 Clinical Protocol,"MDV.C4591001-Pfizer,-Inc.ADaM-IG.1.1","Study C4591001 Pfizer, Inc Data Definitions",2.0.0,ADaM-IG,1.1,IG.ADSL,ADSL,ADSL,Subject-Level Analysis Dataset,,,,,IT.ADSL.ENRLFL,ENRLFL,Enrolled Population Flag,text,1,ENRLFL,,,True,,MT.ADSL.ENRLFL,,CL.Y,Y,text,Y: Yes
FDA-CBER-2021-5683-1496005-1496178_27034_S1_M5_c4591001-safety-fa-eff-A-define.xml,"C4591001-Pfizer,-Inc.ADaM-IG.1.1","C4591001 Pfizer, Inc","A Phase 1/2/3 Study to Evaluate the Safety, Tolerability, Immunogenicity, and Efficacy of RNA Vaccine Candidates Against COVID-19 in Healthy Adults",C4591001 Clinical Protocol,"MDV.C4591001-Pfizer,-Inc.ADaM-IG.1.1","Study C4591001 Pfizer, Inc Data Definitions",2.0.0,ADaM-IG,1.1,IG.ADSL,ADSL,ADSL,Subject-Level Analysis Dataset,,,,,IT.ADSL.DTHFL,DTHFL,Subject Death Flag,text,1,DTHFL,,,False,,,,CL.Y,Y,text,Y: Yes
FDA-CBER-2021-5683-1496005-1496178_27034_S1_M5_c4591001-safety-fa-eff-A-define.xml,"C4591001-Pfizer,-Inc.ADaM-IG.1.1","C4591001 Pfizer, Inc","A Phase 1/2/3 Study to Evaluate the Safety, Tolerability, Immunogenicity, and Efficacy of RNA Vaccine Candidates Against COVID-19 in Healthy Adults",C4591001 Clinical Protocol,"MDV.C4591001-Pfizer,-Inc.ADaM-IG.1.1","Study C4591001 Pfizer, Inc Data Definitions",2.0.0,ADaM-IG,1.1,IG.ADSL,ADSL,ADSL,Subject-Level Analysis Dataset,,,,,IT.ADSL.ARM,ARM,Description of Planned Arm,text,27,ARM,,,True,,,,,,,
FDA-CBER-2021-5683-1496005-1496178_27034_S1_M5_c4591001-safety-fa-eff-A-define.xml,"C4591001-Pfizer,-Inc.ADaM-IG.1.1","C4591001 Pfizer, Inc","A Phase 1/2/3 Study to Evaluate the Safety, Tolerability, Immunogenicity, and Efficacy of RNA Vaccine Candidates Against COVID-19 in Healthy Adults",C4591001 Clinical Protocol,"MDV.C4591001-Pfizer,-Inc.ADaM-IG.1.1","Study C4591001 Pfizer, Inc Data Definitions",2.0.0,ADaM-IG,1.1,IG.ADSL,ADSL,ADSL,Subject-Level Analysis Dataset,,,,,IT.ADSL.ARMCD,ARMCD,Planned Arm Code,text,9,ARMCD,,,True,,,,,,,
FDA-CBER-2021-5683-1496005-1496178_27034_S1_M5_c4591001-safety-fa-eff-A-define.xml,"C4591001-Pfizer,-Inc.ADaM-IG.1.1","C4591001 Pfizer, Inc","A Phase 1/2/3 Study to Evaluate the Safety, Tolerability, Immunogenicity, and Efficacy of RNA Vaccine Candidates Against COVID-19 in Healthy Adults",C4591001 Clinical Protocol,"MDV.C4591001-Pfizer,-Inc.ADaM-IG.1.1","Study C4591001 Pfizer, Inc Data Definitions",2.0.0,ADaM-IG,1.1,IG.ADSL,ADSL,ADSL,Subject-Level Analysis Dataset,,,,,IT.ADSL.ACTARM,ACTARM,Description of Actual Arm,text,27,ACTARM,,,False,,MT.ADSL.ACTARM,,,,,
FDA-CBER-2021-5683-1496005-1496178_27034_S1_M5_c4591001-safety-fa-eff-A-define.xml,"C4591001-Pfizer,-Inc.ADaM-IG.1.1","C4591001 Pfizer, Inc","A Phase 1/2/3 Study to Evaluate the Safety, Tolerability, Immunogenicity, and Efficacy of RNA Vaccine Candidates Against COVID-19 in Healthy Adults",C4591001 Clinical Protocol,"MDV.C4591001-Pfizer,-Inc.ADaM-IG.1.1","Study C4591001 Pfizer, Inc Data Definitions",2.0.0,ADaM-IG,1.1,IG.ADSL,ADSL,ADSL,Subject-Level Analysis Dataset,,,,,IT.ADSL.ACTARMCD,ACTARMCD,Actual Arm Code,text,9,ACTARMCD,,,False,,MT.ADSL.ACTARMCD,,,,,
FDA-CBER-2021-5683-1496005-1496178_27034_S1_M5_c4591001-safety-fa-eff-A-define.xml,"C4591001-Pfizer,-Inc.ADaM-IG.1.1","C4591001 Pfizer, Inc","A Phase 1/2/3 Study to Evaluate the Safety, Tolerability, Immunogenicity, and Efficacy of RNA Vaccine Candidates Against COVID-19 in Healthy Adults",C4591001 Clinical Protocol,"MDV.C4591001-Pfizer,-Inc.ADaM-IG.1.1","Study C4591001 Pfizer, Inc Data Definitions",2.0.0,ADaM-IG,1.1,IG.ADSL,ADSL,ADSL,Subject-Level Analysis Dataset,,,,,IT.ADSL.TRT01P,TRT01P,Planned Treatment for Period 01,text,27,TRT01P,,,True,,MT.ADSL.TRT01P,,,,,
FDA-CBER-2021-5683-1496005-1496178_27034_S1_M5_c4591001-safety-fa-eff-A-define.xml,"C4591001-Pfizer,-Inc.ADaM-IG.1.1","C4591001 Pfizer, Inc","A Phase 1/2/3 Study to Evaluate the Safety, Tolerability, Immunogenicity, and Efficacy of RNA Vaccine Candidates Against COVID-19 in Healthy Adults",C4591001 Clinical Protocol,"MDV.C4591001-Pfizer,-Inc.ADaM-IG.1.1","Study C4591001 Pfizer, Inc Data Definitions",2.0.0,ADaM-IG,1.1,IG.ADSL,ADSL,ADSL,Subject-Level Analysis Dataset,,,,,IT.ADSL.TRT01PN,TRT01PN,Planned Treatment for Period 01 (N),integer,8,TRT01PN,,,False,,,,,,,
FDA-CBER-2021-5683-1496005-1496178_27034_S1_M5_c4591001-safety-fa-eff-A-define.xml,"C4591001-Pfizer,-Inc.ADaM-IG.1.1","C4591001 Pfizer, Inc","A Phase 1/2/3 Study to Evaluate the Safety, Tolerability, Immunogenicity, and Efficacy of RNA Vaccine Candidates Against COVID-19 in Healthy Adults",C4591001 Clinical Protocol,"MDV.C4591001-Pfizer,-Inc.ADaM-IG.1.1","Study C4591001 Pfizer, Inc Data Definitions",2.0.0,ADaM-IG,1.1,IG.ADSL,ADSL,ADSL,Subject-Level Analysis Dataset,,,,,IT.ADSL.TRT01A,TRT01A,Actual Treatment for Period 01,text,27,TRT01A,,,False,,MT.ADSL.TRT01A,,,,,
FDA-CBER-2021-5683-1496005-1496178_27034_S1_M5_c4591001-safety-fa-eff-A-define.xml,"C4591001-Pfizer,-Inc.ADaM-IG.1.1","C4591001 Pfizer, Inc","A Phase 1/2/3 Study to Evaluate the Safety, Tolerability, Immunogenicity, and Efficacy of RNA Vaccine Candidates Against COVID-19 in Healthy Adults",C4591001 Clinical Protocol,"MDV.C4591001-Pfizer,-Inc.ADaM-IG.1.1","Study C4591001 Pfizer, Inc Data Definitions",2.0.0,ADaM-IG,1.1,IG.ADSL,ADSL,ADSL,Subject-Level Analysis Dataset,,,,,IT.ADSL.TRT01AN,TRT01AN,Actual Treatment for Period 01 (N),integer,8,TRT01AN,,,False,,,,,,,
FDA-CBER-2021-5683-1496005-1496178_27034_S1_M5_c4591001-safety-fa-eff-A-define.xml,"C4591001-Pfizer,-Inc.ADaM-IG.1.1","C4591001 Pfizer, Inc","A Phase 1/2/3 Study to Evaluate the Safety, Tolerability, Immunogenicity, and Efficacy of RNA Vaccine Candidates Against COVID-19 in Healthy Adults",C4591001 Clinical Protocol,"MDV.C4591001-Pfizer,-Inc.ADaM-IG.1.1","Study C4591001 Pfizer, Inc Data Definitions",2.0.0,ADaM-IG,1.1,IG.ADSL,ADSL,ADSL,Subject-Level Analysis Dataset,,,,,IT.ADSL.BRTHDT,BRTHDT,Date of Birth,integer,8,BRTHDT,,,True,,MT.ADSL.BRTHDT,,,,,
FDA-CBER-2021-5683-1496005-1496178_27034_S1_M5_c4591001-safety-fa-eff-A-define.xml,"C4591001-Pfizer,-Inc.ADaM-IG.1.1","C4591001 Pfizer, Inc","A Phase 1/2/3 Study to Evaluate the Safety, Tolerability, Immunogenicity, and Efficacy of RNA Vaccine Candidates Against COVID-19 in Healthy Adults",C4591001 Clinical Protocol,"MDV.C4591001-Pfizer,-Inc.ADaM-IG.1.1","Study C4591001 Pfizer, Inc Data Definitions",2.0.0,ADaM-IG,1.1,IG.ADSL,ADSL,ADSL,Subject-Level Analysis Dataset,,,,,IT.ADSL.BRTHDTF,BRTHDTF,Date of Birth Imput. Flag,text,1,BRTHDTF,,,False,,MT.ADSL.BRTHDTF,,CL.DATEFL,DATEFL,text,"D: Day Imputed;
M: Month Day Imputed"
FDA-CBER-2021-5683-1496005-1496178_27034_S1_M5_c4591001-safety-fa-eff-A-define.xml,"C4591001-Pfizer,-Inc.ADaM-IG.1.1","C4591001 Pfizer, Inc","A Phase 1/2/3 Study to Evaluate the Safety, Tolerability, Immunogenicity, and Efficacy of RNA Vaccine Candidates Against COVID-19 in Healthy Adults",C4591001 Clinical Protocol,"MDV.C4591001-Pfizer,-Inc.ADaM-IG.1.1","Study C4591001 Pfizer, Inc Data Definitions",2.0.0,ADaM-IG,1.1,IG.ADSL,ADSL,ADSL,Subject-Level Analysis Dataset,,,,,IT.ADSL.DTHDTC,DTHDTC,Date/Time of Death,date,,DTHDTC,,,False,,,,,,,
FDA-CBER-2021-5683-1496005-1496178_27034_S1_M5_c4591001-safety-fa-eff-A-define.xml,"C4591001-Pfizer,-Inc.ADaM-IG.1.1","C4591001 Pfizer, Inc","A Phase 1/2/3 Study to Evaluate the Safety, Tolerability, Immunogenicity, and Efficacy of RNA Vaccine Candidates Against COVID-19 in Healthy Adults",C4591001 Clinical Protocol,"MDV.C4591001-Pfizer,-Inc.ADaM-IG.1.1","Study C4591001 Pfizer, Inc Data Definitions",2.0.0,ADaM-IG,1.1,IG.ADSL,ADSL,ADSL,Subject-Level Analysis Dataset,,,,,IT.ADSL.DTHDT,DTHDT,Date of Death,integer,8,DTHDT,,,False,,MT.ADSL.DTHDT,,,,,
FDA-CBER-2021-5683-1496005-1496178_27034_S1_M5_c4591001-safety-fa-eff-A-define.xml,"C4591001-Pfizer,-Inc.ADaM-IG.1.1","C4591001 Pfizer, Inc","A Phase 1/2/3 Study to Evaluate the Safety, Tolerability, Immunogenicity, and Efficacy of RNA Vaccine Candidates Against COVID-19 in Healthy Adults",C4591001 Clinical Protocol,"MDV.C4591001-Pfizer,-Inc.ADaM-IG.1.1","Study C4591001 Pfizer, Inc Data Definitions",2.0.0,ADaM-IG,1.1,IG.ADSL,ADSL,ADSL,Subject-Level Analysis Dataset,,,,,IT.ADSL.DTHDTF,DTHDTF,Date of Death Imputation Flag,text,1,DTHDTF,,,False,,MT.ADSL.DTHDTF,,CL.DATEFL,DATEFL,text,"D: Day Imputed;
M: Month Day Imputed"
FDA-CBER-2021-5683-1496005-1496178_27034_S1_M5_c4591001-safety-fa-eff-A-define.xml,"C4591001-Pfizer,-Inc.ADaM-IG.1.1","C4591001 Pfizer, Inc","A Phase 1/2/3 Study to Evaluate the Safety, Tolerability, Immunogenicity, and Efficacy of RNA Vaccine Candidates Against COVID-19 in Healthy Adults",C4591001 Clinical Protocol,"MDV.C4591001-Pfizer,-Inc.ADaM-IG.1.1","Study C4591001 Pfizer, Inc Data Definitions",2.0.0,ADaM-IG,1.1,IG.ADSL,ADSL,ADSL,Subject-Level Analysis Dataset,,,,,IT.ADSL.RANDDT,RANDDT,Date of Randomization,integer,8,RANDDT,,,False,,MT.ADSL.RANDDT,,,,,
FDA-CBER-2021-5683-1496005-1496178_27034_S1_M5_c4591001-safety-fa-eff-A-define.xml,"C4591001-Pfizer,-Inc.ADaM-IG.1.1","C4591001 Pfizer, Inc","A Phase 1/2/3 Study to Evaluate the Safety, Tolerability, Immunogenicity, and Efficacy of RNA Vaccine Candidates Against COVID-19 in Healthy Adults",C4591001 Clinical Protocol,"MDV.C4591001-Pfizer,-Inc.ADaM-IG.1.1","Study C4591001 Pfizer, Inc Data Definitions",2.0.0,ADaM-IG,1.1,IG.ADSL,ADSL,ADSL,Subject-Level Analysis Dataset,,,,,IT.ADSL.RANDNO,RANDNO,Randomization Number,text,6,RANDNO,,,False,,,,,,,
FDA-CBER-2021-5683-1496005-1496178_27034_S1_M5_c4591001-safety-fa-eff-A-define.xml,"C4591001-Pfizer,-Inc.ADaM-IG.1.1","C4591001 Pfizer, Inc","A Phase 1/2/3 Study to Evaluate the Safety, Tolerability, Immunogenicity, and Efficacy of RNA Vaccine Candidates Against COVID-19 in Healthy Adults",C4591001 Clinical Protocol,"MDV.C4591001-Pfizer,-Inc.ADaM-IG.1.1","Study C4591001 Pfizer, Inc Data Definitions",2.0.0,ADaM-IG,1.1,IG.ADSL,ADSL,ADSL,Subject-Level Analysis Dataset,,,,,IT.ADSL.RFSTDT,RFSTDT,Subject Reference Start Date,integer,8,RFSTDT,,,True,,MT.ADSL.RFSTDT,,,,,
FDA-CBER-2021-5683-1496005-1496178_27034_S1_M5_c4591001-safety-fa-eff-A-define.xml,"C4591001-Pfizer,-Inc.ADaM-IG.1.1","C4591001 Pfizer, Inc","A Phase 1/2/3 Study to Evaluate the Safety, Tolerability, Immunogenicity, and Efficacy of RNA Vaccine Candidates Against COVID-19 in Healthy Adults",C4591001 Clinical Protocol,"MDV.C4591001-Pfizer,-Inc.ADaM-IG.1.1","Study C4591001 Pfizer, Inc Data Definitions",2.0.0,ADaM-IG,1.1,IG.ADSL,ADSL,ADSL,Subject-Level Analysis Dataset,,,,,IT.ADSL.RFSTTM,RFSTTM,Subject Reference Start Time,integer,8,RFSTTM,,,False,,MT.ADSL.RFSTTM,,,,,
FDA-CBER-2021-5683-1496005-1496178_27034_S1_M5_c4591001-safety-fa-eff-A-define.xml,"C4591001-Pfizer,-Inc.ADaM-IG.1.1","C4591001 Pfizer, Inc","A Phase 1/2/3 Study to Evaluate the Safety, Tolerability, Immunogenicity, and Efficacy of RNA Vaccine Candidates Against COVID-19 in Healthy Adults",C4591001 Clinical Protocol,"MDV.C4591001-Pfizer,-Inc.ADaM-IG.1.1","Study C4591001 Pfizer, Inc Data Definitions",2.0.0,ADaM-IG,1.1,IG.ADSL,ADSL,ADSL,Subject-Level Analysis Dataset,,,,,IT.ADSL.RFENDT,RFENDT,Subject Reference End Date,integer,8,RFENDT,,,True,,MT.ADSL.RFENDT,,,,,
FDA-CBER-2021-5683-1496005-1496178_27034_S1_M5_c4591001-safety-fa-eff-A-define.xml,"C4591001-Pfizer,-Inc.ADaM-IG.1.1","C4591001 Pfizer, Inc","A Phase 1/2/3 Study to Evaluate the Safety, Tolerability, Immunogenicity, and Efficacy of RNA Vaccine Candidates Against COVID-19 in Healthy Adults",C4591001 Clinical Protocol,"MDV.C4591001-Pfizer,-Inc.ADaM-IG.1.1","Study C4591001 Pfizer, Inc Data Definitions",2.0.0,ADaM-IG,1.1,IG.ADSL,ADSL,ADSL,Subject-Level Analysis Dataset,,,,,IT.ADSL.RFENTM,RFENTM,Subject Reference End Time,integer,8,RFENTM,,,False,,MT.ADSL.RFENTM,,,,,
FDA-CBER-2021-5683-1496005-1496178_27034_S1_M5_c4591001-safety-fa-eff-A-define.xml,"C4591001-Pfizer,-Inc.ADaM-IG.1.1","C4591001 Pfizer, Inc","A Phase 1/2/3 Study to Evaluate the Safety, Tolerability, Immunogenicity, and Efficacy of RNA Vaccine Candidates Against COVID-19 in Healthy Adults",C4591001 Clinical Protocol,"MDV.C4591001-Pfizer,-Inc.ADaM-IG.1.1","Study C4591001 Pfizer, Inc Data Definitions",2.0.0,ADaM-IG,1.1,IG.ADSL,ADSL,ADSL,Subject-Level Analysis Dataset,,,,,IT.ADSL.RFPENDT,RFPENDT,Date of End of Participation,integer,8,RFPENDT,,,False,,,,,,,
FDA-CBER-2021-5683-1496005-1496178_27034_S1_M5_c4591001-safety-fa-eff-A-define.xml,"C4591001-Pfizer,-Inc.ADaM-IG.1.1","C4591001 Pfizer, Inc","A Phase 1/2/3 Study to Evaluate the Safety, Tolerability, Immunogenicity, and Efficacy of RNA Vaccine Candidates Against COVID-19 in Healthy Adults",C4591001 Clinical Protocol,"MDV.C4591001-Pfizer,-Inc.ADaM-IG.1.1","Study C4591001 Pfizer, Inc Data Definitions",2.0.0,ADaM-IG,1.1,IG.ADSL,ADSL,ADSL,Subject-Level Analysis Dataset,,,,,IT.ADSL.RFICDT,RFICDT,Date of Informed Consent,integer,8,RFICDT,,,True,,,,,,,
FDA-CBER-2021-5683-1496005-1496178_27034_S1_M5_c4591001-safety-fa-eff-A-define.xml,"C4591001-Pfizer,-Inc.ADaM-IG.1.1","C4591001 Pfizer, Inc","A Phase 1/2/3 Study to Evaluate the Safety, Tolerability, Immunogenicity, and Efficacy of RNA Vaccine Candidates Against COVID-19 in Healthy Adults",C4591001 Clinical Protocol,"MDV.C4591001-Pfizer,-Inc.ADaM-IG.1.1","Study C4591001 Pfizer, Inc Data Definitions",2.0.0,ADaM-IG,1.1,IG.ADSL,ADSL,ADSL,Subject-Level Analysis Dataset,,,,,IT.ADSL.TRTSDT,TRTSDT,Date of First Exposure to Treatment,integer,8,TRTSDT,,,False,,MT.ADSL.TRTSDT,,,,,
FDA-CBER-2021-5683-1496005-1496178_27034_S1_M5_c4591001-safety-fa-eff-A-define.xml,"C4591001-Pfizer,-Inc.ADaM-IG.1.1","C4591001 Pfizer, Inc","A Phase 1/2/3 Study to Evaluate the Safety, Tolerability, Immunogenicity, and Efficacy of RNA Vaccine Candidates Against COVID-19 in Healthy Adults",C4591001 Clinical Protocol,"MDV.C4591001-Pfizer,-Inc.ADaM-IG.1.1","Study C4591001 Pfizer, Inc Data Definitions",2.0.0,ADaM-IG,1.1,IG.ADSL,ADSL,ADSL,Subject-Level Analysis Dataset,,,,,IT.ADSL.TRTSTM,TRTSTM,Time of First Exposure to Treatment,integer,8,TRTSTM,,,False,,MT.ADSL.TRTSTM,,,,,
FDA-CBER-2021-5683-1496005-1496178_27034_S1_M5_c4591001-safety-fa-eff-A-define.xml,"C4591001-Pfizer,-Inc.ADaM-IG.1.1","C4591001 Pfizer, Inc","A Phase 1/2/3 Study to Evaluate the Safety, Tolerability, Immunogenicity, and Efficacy of RNA Vaccine Candidates Against COVID-19 in Healthy Adults",C4591001 Clinical Protocol,"MDV.C4591001-Pfizer,-Inc.ADaM-IG.1.1","Study C4591001 Pfizer, Inc Data Definitions",2.0.0,ADaM-IG,1.1,IG.ADSL,ADSL,ADSL,Subject-Level Analysis Dataset,,,,,IT.ADSL.TRTEDT,TRTEDT,Date of Last Exposure to Treatment,integer,8,TRTEDT,,,False,,MT.ADSL.TRTEDT,,,,,
FDA-CBER-2021-5683-1496005-1496178_27034_S1_M5_c4591001-safety-fa-eff-A-define.xml,"C4591001-Pfizer,-Inc.ADaM-IG.1.1","C4591001 Pfizer, Inc","A Phase 1/2/3 Study to Evaluate the Safety, Tolerability, Immunogenicity, and Efficacy of RNA Vaccine Candidates Against COVID-19 in Healthy Adults",C4591001 Clinical Protocol,"MDV.C4591001-Pfizer,-Inc.ADaM-IG.1.1","Study C4591001 Pfizer, Inc Data Definitions",2.0.0,ADaM-IG,1.1,IG.ADSL,ADSL,ADSL,Subject-Level Analysis Dataset,,,,,IT.ADSL.TRTETM,TRTETM,Time of Last Exposure to Treatment,integer,8,TRTETM,,,False,,MT.ADSL.TRTETM,,,,,
FDA-CBER-2021-5683-1496005-1496178_27034_S1_M5_c4591001-safety-fa-eff-A-define.xml,"C4591001-Pfizer,-Inc.ADaM-IG.1.1","C4591001 Pfizer, Inc","A Phase 1/2/3 Study to Evaluate the Safety, Tolerability, Immunogenicity, and Efficacy of RNA Vaccine Candidates Against COVID-19 in Healthy Adults",C4591001 Clinical Protocol,"MDV.C4591001-Pfizer,-Inc.ADaM-IG.1.1","Study C4591001 Pfizer, Inc Data Definitions",2.0.0,ADaM-IG,1.1,IG.ADSL,ADSL,ADSL,Subject-Level Analysis Dataset,,,,,IT.ADSL.TR01SDT,TR01SDT,Date of First Exposure in Period 01,integer,8,TR01SDT,,,False,,MT.ADSL.TR01SDT,,,,,
FDA-CBER-2021-5683-1496005-1496178_27034_S1_M5_c4591001-safety-fa-eff-A-define.xml,"C4591001-Pfizer,-Inc.ADaM-IG.1.1","C4591001 Pfizer, Inc","A Phase 1/2/3 Study to Evaluate the Safety, Tolerability, Immunogenicity, and Efficacy of RNA Vaccine Candidates Against COVID-19 in Healthy Adults",C4591001 Clinical Protocol,"MDV.C4591001-Pfizer,-Inc.ADaM-IG.1.1","Study C4591001 Pfizer, Inc Data Definitions",2.0.0,ADaM-IG,1.1,IG.ADSL,ADSL,ADSL,Subject-Level Analysis Dataset,,,,,IT.ADSL.TR01STM,TR01STM,Time of First Exposure in Period 01,integer,8,TR01STM,,,False,,MT.ADSL.TR01STM,,,,,
FDA-CBER-2021-5683-1496005-1496178_27034_S1_M5_c4591001-safety-fa-eff-A-define.xml,"C4591001-Pfizer,-Inc.ADaM-IG.1.1","C4591001 Pfizer, Inc","A Phase 1/2/3 Study to Evaluate the Safety, Tolerability, Immunogenicity, and Efficacy of RNA Vaccine Candidates Against COVID-19 in Healthy Adults",C4591001 Clinical Protocol,"MDV.C4591001-Pfizer,-Inc.ADaM-IG.1.1","Study C4591001 Pfizer, Inc Data Definitions",2.0.0,ADaM-IG,1.1,IG.ADSL,ADSL,ADSL,Subject-Level Analysis Dataset,,,,,IT.ADSL.TR01EDT,TR01EDT,Date of Last Exposure in Period 01,integer,8,TR01EDT,,,False,,MT.ADSL.TR01EDT,,,,,
FDA-CBER-2021-5683-1496005-1496178_27034_S1_M5_c4591001-safety-fa-eff-A-define.xml,"C4591001-Pfizer,-Inc.ADaM-IG.1.1","C4591001 Pfizer, Inc","A Phase 1/2/3 Study to Evaluate the Safety, Tolerability, Immunogenicity, and Efficacy of RNA Vaccine Candidates Against COVID-19 in Healthy Adults",C4591001 Clinical Protocol,"MDV.C4591001-Pfizer,-Inc.ADaM-IG.1.1","Study C4591001 Pfizer, Inc Data Definitions",2.0.0,ADaM-IG,1.1,IG.ADSL,ADSL,ADSL,Subject-Level Analysis Dataset,,,,,IT.ADSL.TR01ETM,TR01ETM,Time of Last Exposure in Period 01,integer,8,TR01ETM,,,False,,MT.ADSL.TR01ETM,,,,,
FDA-CBER-2021-5683-1496005-1496178_27034_S1_M5_c4591001-safety-fa-eff-A-define.xml,"C4591001-Pfizer,-Inc.ADaM-IG.1.1","C4591001 Pfizer, Inc","A Phase 1/2/3 Study to Evaluate the Safety, Tolerability, Immunogenicity, and Efficacy of RNA Vaccine Candidates Against COVID-19 in Healthy Adults",C4591001 Clinical Protocol,"MDV.C4591001-Pfizer,-Inc.ADaM-IG.1.1","Study C4591001 Pfizer, Inc Data Definitions",2.0.0,ADaM-IG,1.1,IG.ADSL,ADSL,ADSL,Subject-Level Analysis Dataset,,,,,IT.ADSL.TRTSDTM,TRTSDTM,Datetime of First Exposure to Treatment,integer,8,TRTSDTM,,,False,,MT.ADSL.TRTSDTM,,,,,
FDA-CBER-2021-5683-1496005-1496178_27034_S1_M5_c4591001-safety-fa-eff-A-define.xml,"C4591001-Pfizer,-Inc.ADaM-IG.1.1","C4591001 Pfizer, Inc","A Phase 1/2/3 Study to Evaluate the Safety, Tolerability, Immunogenicity, and Efficacy of RNA Vaccine Candidates Against COVID-19 in Healthy Adults",C4591001 Clinical Protocol,"MDV.C4591001-Pfizer,-Inc.ADaM-IG.1.1","Study C4591001 Pfizer, Inc Data Definitions",2.0.0,ADaM-IG,1.1,IG.ADSL,ADSL,ADSL,Subject-Level Analysis Dataset,,,,,IT.ADSL.TRTEDTM,TRTEDTM,Datetime of Last Exposure to Treatment,integer,8,TRTEDTM,,,False,,MT.ADSL.TRTEDTM,,,,,
FDA-CBER-2021-5683-1496005-1496178_27034_S1_M5_c4591001-safety-fa-eff-A-define.xml,"C4591001-Pfizer,-Inc.ADaM-IG.1.1","C4591001 Pfizer, Inc","A Phase 1/2/3 Study to Evaluate the Safety, Tolerability, Immunogenicity, and Efficacy of RNA Vaccine Candidates Against COVID-19 in Healthy Adults",C4591001 Clinical Protocol,"MDV.C4591001-Pfizer,-Inc.ADaM-IG.1.1","Study C4591001 Pfizer, Inc Data Definitions",2.0.0,ADaM-IG,1.1,IG.ADSL,ADSL,ADSL,Subject-Level Analysis Dataset,,,,,IT.ADSL.TR01SDTM,TR01SDTM,Datetime of First Exposure in Period 01,integer,8,TR01SDTM,,,False,,MT.ADSL.TR01SDTM,,,,,
FDA-CBER-2021-5683-1496005-1496178_27034_S1_M5_c4591001-safety-fa-eff-A-define.xml,"C4591001-Pfizer,-Inc.ADaM-IG.1.1","C4591001 Pfizer, Inc","A Phase 1/2/3 Study to Evaluate the Safety, Tolerability, Immunogenicity, and Efficacy of RNA Vaccine Candidates Against COVID-19 in Healthy Adults",C4591001 Clinical Protocol,"MDV.C4591001-Pfizer,-Inc.ADaM-IG.1.1","Study C4591001 Pfizer, Inc Data Definitions",2.0.0,ADaM-IG,1.1,IG.ADSL,ADSL,ADSL,Subject-Level Analysis Dataset,,,,,IT.ADSL.TR01EDTM,TR01EDTM,Datetime of Last Exposure in Period 01,integer,8,TR01EDTM,,,False,,MT.ADSL.TR01EDTM,,,,,
FDA-CBER-2021-5683-1496005-1496178_27034_S1_M5_c4591001-safety-fa-eff-A-define.xml,"C4591001-Pfizer,-Inc.ADaM-IG.1.1","C4591001 Pfizer, Inc","A Phase 1/2/3 Study to Evaluate the Safety, Tolerability, Immunogenicity, and Efficacy of RNA Vaccine Candidates Against COVID-19 in Healthy Adults",C4591001 Clinical Protocol,"MDV.C4591001-Pfizer,-Inc.ADaM-IG.1.1","Study C4591001 Pfizer, Inc Data Definitions",2.0.0,ADaM-IG,1.1,IG.ADSL,ADSL,ADSL,Subject-Level Analysis Dataset,,,,,IT.ADSL.VAX101DT,VAX101DT,Vaccination Date 01,integer,8,VAX101DT,,,False,,MT.ADSL.VAX101DT,,,,,
FDA-CBER-2021-5683-1496005-1496178_27034_S1_M5_c4591001-safety-fa-eff-A-define.xml,"C4591001-Pfizer,-Inc.ADaM-IG.1.1","C4591001 Pfizer, Inc","A Phase 1/2/3 Study to Evaluate the Safety, Tolerability, Immunogenicity, and Efficacy of RNA Vaccine Candidates Against COVID-19 in Healthy Adults",C4591001 Clinical Protocol,"MDV.C4591001-Pfizer,-Inc.ADaM-IG.1.1","Study C4591001 Pfizer, Inc Data Definitions",2.0.0,ADaM-IG,1.1,IG.ADSL,ADSL,ADSL,Subject-Level Analysis Dataset,,,,,IT.ADSL.VAX102DT,VAX102DT,Vaccination Date 02,integer,8,VAX102DT,,,False,,MT.ADSL.VAX102DT,,,,,
FDA-CBER-2021-5683-1496005-1496178_27034_S1_M5_c4591001-safety-fa-eff-A-define.xml,"C4591001-Pfizer,-Inc.ADaM-IG.1.1","C4591001 Pfizer, Inc","A Phase 1/2/3 Study to Evaluate the Safety, Tolerability, Immunogenicity, and Efficacy of RNA Vaccine Candidates Against COVID-19 in Healthy Adults",C4591001 Clinical Protocol,"MDV.C4591001-Pfizer,-Inc.ADaM-IG.1.1","Study C4591001 Pfizer, Inc Data Definitions",2.0.0,ADaM-IG,1.1,IG.ADSL,ADSL,ADSL,Subject-Level Analysis Dataset,,,,,IT.ADSL.VAX103DT,VAX103DT,Vaccination Date 03,integer,8,VAX103DT,,,False,,MT.ADSL.VAX103DT,,,,,
FDA-CBER-2021-5683-1496005-1496178_27034_S1_M5_c4591001-safety-fa-eff-A-define.xml,"C4591001-Pfizer,-Inc.ADaM-IG.1.1","C4591001 Pfizer, Inc","A Phase 1/2/3 Study to Evaluate the Safety, Tolerability, Immunogenicity, and Efficacy of RNA Vaccine Candidates Against COVID-19 in Healthy Adults",C4591001 Clinical Protocol,"MDV.C4591001-Pfizer,-Inc.ADaM-IG.1.1","Study C4591001 Pfizer, Inc Data Definitions",2.0.0,ADaM-IG,1.1,IG.ADSL,ADSL,ADSL,Subject-Level Analysis Dataset,,,,,IT.ADSL.AGETR01,AGETR01,Age at Vaccination 01,integer,8,AGETR01,,,True,,MT.ADSL.AGETR01,,,,,
FDA-CBER-2021-5683-1496005-1496178_27034_S1_M5_c4591001-safety-fa-eff-A-define.xml,"C4591001-Pfizer,-Inc.ADaM-IG.1.1","C4591001 Pfizer, Inc","A Phase 1/2/3 Study to Evaluate the Safety, Tolerability, Immunogenicity, and Efficacy of RNA Vaccine Candidates Against COVID-19 in Healthy Adults",C4591001 Clinical Protocol,"MDV.C4591001-Pfizer,-Inc.ADaM-IG.1.1","Study C4591001 Pfizer, Inc Data Definitions",2.0.0,ADaM-IG,1.1,IG.ADSL,ADSL,ADSL,Subject-Level Analysis Dataset,,,,,IT.ADSL.AGETRU01,AGETRU01,Age Units at Vaccination 01,text,5,AGETRU01,,,True,,MT.ADSL.AGETRU01,,CL.AGEU,AGEU,text,YEARS: Year
FDA-CBER-2021-5683-1496005-1496178_27034_S1_M5_c4591001-safety-fa-eff-A-define.xml,"C4591001-Pfizer,-Inc.ADaM-IG.1.1","C4591001 Pfizer, Inc","A Phase 1/2/3 Study to Evaluate the Safety, Tolerability, Immunogenicity, and Efficacy of RNA Vaccine Candidates Against COVID-19 in Healthy Adults",C4591001 Clinical Protocol,"MDV.C4591001-Pfizer,-Inc.ADaM-IG.1.1","Study C4591001 Pfizer, Inc Data Definitions",2.0.0,ADaM-IG,1.1,IG.ADSL,ADSL,ADSL,Subject-Level Analysis Dataset,,,,,IT.ADSL.AGEGR1,AGEGR1,Pooled Age Group 1,text,11,AGEGR1,,,True,,MT.ADSL.AGEGR1,,,,,
FDA-CBER-2021-5683-1496005-1496178_27034_S1_M5_c4591001-safety-fa-eff-A-define.xml,"C4591001-Pfizer,-Inc.ADaM-IG.1.1","C4591001 Pfizer, Inc","A Phase 1/2/3 Study to Evaluate the Safety, Tolerability, Immunogenicity, and Efficacy of RNA Vaccine Candidates Against COVID-19 in Healthy Adults",C4591001 Clinical Protocol,"MDV.C4591001-Pfizer,-Inc.ADaM-IG.1.1","Study C4591001 Pfizer, Inc Data Definitions",2.0.0,ADaM-IG,1.1,IG.ADSL,ADSL,ADSL,Subject-Level Analysis Dataset,,,,,IT.ADSL.AGEGR1N,AGEGR1N,Pooled Age Group 1 (N),integer,8,AGEGR1N,,,True,,,,,,,
FDA-CBER-2021-5683-1496005-1496178_27034_S1_M5_c4591001-safety-fa-eff-A-define.xml,"C4591001-Pfizer,-Inc.ADaM-IG.1.1","C4591001 Pfizer, Inc","A Phase 1/2/3 Study to Evaluate the Safety, Tolerability, Immunogenicity, and Efficacy of RNA Vaccine Candidates Against COVID-19 in Healthy Adults",C4591001 Clinical Protocol,"MDV.C4591001-Pfizer,-Inc.ADaM-IG.1.1","Study C4591001 Pfizer, Inc Data Definitions",2.0.0,ADaM-IG,1.1,IG.ADSL,ADSL,ADSL,Subject-Level Analysis Dataset,,,,,IT.ADSL.ARACE,ARACE,Analysis Race,text,41,ARACE,,,True,,MT.ADSL.ARACE,,CL.ARACE,ARACE,text,
FDA-CBER-2021-5683-1496005-1496178_27034_S1_M5_c4591001-safety-fa-eff-A-define.xml,"C4591001-Pfizer,-Inc.ADaM-IG.1.1","C4591001 Pfizer, Inc","A Phase 1/2/3 Study to Evaluate the Safety, Tolerability, Immunogenicity, and Efficacy of RNA Vaccine Candidates Against COVID-19 in Healthy Adults",C4591001 Clinical Protocol,"MDV.C4591001-Pfizer,-Inc.ADaM-IG.1.1","Study C4591001 Pfizer, Inc Data Definitions",2.0.0,ADaM-IG,1.1,IG.ADSL,ADSL,ADSL,Subject-Level Analysis Dataset,,,,,IT.ADSL.ARACEN,ARACEN,Analysis Race (N),integer,8,ARACEN,,,True,,,,,,,
FDA-CBER-2021-5683-1496005-1496178_27034_S1_M5_c4591001-safety-fa-eff-A-define.xml,"C4591001-Pfizer,-Inc.ADaM-IG.1.1","C4591001 Pfizer, Inc","A Phase 1/2/3 Study to Evaluate the Safety, Tolerability, Immunogenicity, and Efficacy of RNA Vaccine Candidates Against COVID-19 in Healthy Adults",C4591001 Clinical Protocol,"MDV.C4591001-Pfizer,-Inc.ADaM-IG.1.1","Study C4591001 Pfizer, Inc Data Definitions",2.0.0,ADaM-IG,1.1,IG.ADSL,ADSL,ADSL,Subject-Level Analysis Dataset,,,,,IT.ADSL.RACEGR1,RACEGR1,Pooled Race Group 1,text,25,RACEGR1,,,True,,MT.ADSL.RACEGR1,,,,,
FDA-CBER-2021-5683-1496005-1496178_27034_S1_M5_c4591001-safety-fa-eff-A-define.xml,"C4591001-Pfizer,-Inc.ADaM-IG.1.1","C4591001 Pfizer, Inc","A Phase 1/2/3 Study to Evaluate the Safety, Tolerability, Immunogenicity, and Efficacy of RNA Vaccine Candidates Against COVID-19 in Healthy Adults",C4591001 Clinical Protocol,"MDV.C4591001-Pfizer,-Inc.ADaM-IG.1.1","Study C4591001 Pfizer, Inc Data Definitions",2.0.0,ADaM-IG,1.1,IG.ADSL,ADSL,ADSL,Subject-Level Analysis Dataset,,,,,IT.ADSL.RACEGR1N,RACEGR1N,Pooled Race Group 1 (N),integer,8,RACEGR1N,,,True,,,,,,,
FDA-CBER-2021-5683-1496005-1496178_27034_S1_M5_c4591001-safety-fa-eff-A-define.xml,"C4591001-Pfizer,-Inc.ADaM-IG.1.1","C4591001 Pfizer, Inc","A Phase 1/2/3 Study to Evaluate the Safety, Tolerability, Immunogenicity, and Efficacy of RNA Vaccine Candidates Against COVID-19 in Healthy Adults",C4591001 Clinical Protocol,"MDV.C4591001-Pfizer,-Inc.ADaM-IG.1.1","Study C4591001 Pfizer, Inc Data Definitions",2.0.0,ADaM-IG,1.1,IG.ADSL,ADSL,ADSL,Subject-Level Analysis Dataset,,,,,IT.ADSL.EOSDCDT,EOSDCDT,End Of Study Discontinuation Date,integer,8,EOSDCDT,,,False,,MT.ADSL.EOSDCDT,,,,,
FDA-CBER-2021-5683-1496005-1496178_27034_S1_M5_c4591001-safety-fa-eff-A-define.xml,"C4591001-Pfizer,-Inc.ADaM-IG.1.1","C4591001 Pfizer, Inc","A Phase 1/2/3 Study to Evaluate the Safety, Tolerability, Immunogenicity, and Efficacy of RNA Vaccine Candidates Against COVID-19 in Healthy Adults",C4591001 Clinical Protocol,"MDV.C4591001-Pfizer,-Inc.ADaM-IG.1.1","Study C4591001 Pfizer, Inc Data Definitions",2.0.0,ADaM-IG,1.1,IG.ADSL,ADSL,ADSL,Subject-Level Analysis Dataset,,,,,IT.ADSL.EOSDCRS,EOSDCRS,End Of Study Discontinuation Reason,text,49,EOSDCRS,,,False,,MT.ADSL.EOSDCRS,,,,,
FDA-CBER-2021-5683-1496005-1496178_27034_S1_M5_c4591001-safety-fa-eff-A-define.xml,"C4591001-Pfizer,-Inc.ADaM-IG.1.1","C4591001 Pfizer, Inc","A Phase 1/2/3 Study to Evaluate the Safety, Tolerability, Immunogenicity, and Efficacy of RNA Vaccine Candidates Against COVID-19 in Healthy Adults",C4591001 Clinical Protocol,"MDV.C4591001-Pfizer,-Inc.ADaM-IG.1.1","Study C4591001 Pfizer, Inc Data Definitions",2.0.0,ADaM-IG,1.1,IG.ADSL,ADSL,ADSL,Subject-Level Analysis Dataset,,,,,IT.ADSL.EOTDCDT,EOTDCDT,End Of Treatment Discontinuation Date,integer,8,EOTDCDT,,,False,,MT.ADSL.EOTDCDT,,,,,
FDA-CBER-2021-5683-1496005-1496178_27034_S1_M5_c4591001-safety-fa-eff-A-define.xml,"C4591001-Pfizer,-Inc.ADaM-IG.1.1","C4591001 Pfizer, Inc","A Phase 1/2/3 Study to Evaluate the Safety, Tolerability, Immunogenicity, and Efficacy of RNA Vaccine Candidates Against COVID-19 in Healthy Adults",C4591001 Clinical Protocol,"MDV.C4591001-Pfizer,-Inc.ADaM-IG.1.1","Study C4591001 Pfizer, Inc Data Definitions",2.0.0,ADaM-IG,1.1,IG.ADSL,ADSL,ADSL,Subject-Level Analysis Dataset,,,,,IT.ADSL.EOTDCRS,EOTDCRS,End Of Treatment Discontinuation Reason,text,49,EOTDCRS,,,False,,MT.ADSL.EOTDCRS,,,,,
FDA-CBER-2021-5683-1496005-1496178_27034_S1_M5_c4591001-safety-fa-eff-A-define.xml,"C4591001-Pfizer,-Inc.ADaM-IG.1.1","C4591001 Pfizer, Inc","A Phase 1/2/3 Study to Evaluate the Safety, Tolerability, Immunogenicity, and Efficacy of RNA Vaccine Candidates Against COVID-19 in Healthy Adults",C4591001 Clinical Protocol,"MDV.C4591001-Pfizer,-Inc.ADaM-IG.1.1","Study C4591001 Pfizer, Inc Data Definitions",2.0.0,ADaM-IG,1.1,IG.ADSL,ADSL,ADSL,Subject-Level Analysis Dataset,,,,,IT.ADSL.INVID,INVID,Investigator Identifier,text,7,INVID,,,True,,,,,,,
FDA-CBER-2021-5683-1496005-1496178_27034_S1_M5_c4591001-safety-fa-eff-A-define.xml,"C4591001-Pfizer,-Inc.ADaM-IG.1.1","C4591001 Pfizer, Inc","A Phase 1/2/3 Study to Evaluate the Safety, Tolerability, Immunogenicity, and Efficacy of RNA Vaccine Candidates Against COVID-19 in Healthy Adults",C4591001 Clinical Protocol,"MDV.C4591001-Pfizer,-Inc.ADaM-IG.1.1","Study C4591001 Pfizer, Inc Data Definitions",2.0.0,ADaM-IG,1.1,IG.ADSL,ADSL,ADSL,Subject-Level Analysis Dataset,,,,,IT.ADSL.INVNAM,INVNAM,Investigator Name,text,37,INVNAM,,,True,,,,,,,
FDA-CBER-2021-5683-1496005-1496178_27034_S1_M5_c4591001-safety-fa-eff-A-define.xml,"C4591001-Pfizer,-Inc.ADaM-IG.1.1","C4591001 Pfizer, Inc","A Phase 1/2/3 Study to Evaluate the Safety, Tolerability, Immunogenicity, and Efficacy of RNA Vaccine Candidates Against COVID-19 in Healthy Adults",C4591001 Clinical Protocol,"MDV.C4591001-Pfizer,-Inc.ADaM-IG.1.1","Study C4591001 Pfizer, Inc Data Definitions",2.0.0,ADaM-IG,1.1,IG.ADSL,ADSL,ADSL,Subject-Level Analysis Dataset,,,,,IT.ADSL.DOSALVL,DOSALVL,Actual Dosing Level,text,52,DOSALVL,,,False,,MT.ADSL.DOSALVL,,,,,
FDA-CBER-2021-5683-1496005-1496178_27034_S1_M5_c4591001-safety-fa-eff-A-define.xml,"C4591001-Pfizer,-Inc.ADaM-IG.1.1","C4591001 Pfizer, Inc","A Phase 1/2/3 Study to Evaluate the Safety, Tolerability, Immunogenicity, and Efficacy of RNA Vaccine Candidates Against COVID-19 in Healthy Adults",C4591001 Clinical Protocol,"MDV.C4591001-Pfizer,-Inc.ADaM-IG.1.1","Study C4591001 Pfizer, Inc Data Definitions",2.0.0,ADaM-IG,1.1,IG.ADSL,ADSL,ADSL,Subject-Level Analysis Dataset,,,,,IT.ADSL.DOSPLVL,DOSPLVL,Planned Dosing Level,text,52,DOSPLVL,,,False,,MT.ADSL.DOSPLVL,,,,,
FDA-CBER-2021-5683-1496005-1496178_27034_S1_M5_c4591001-safety-fa-eff-A-define.xml,"C4591001-Pfizer,-Inc.ADaM-IG.1.1","C4591001 Pfizer, Inc","A Phase 1/2/3 Study to Evaluate the Safety, Tolerability, Immunogenicity, and Efficacy of RNA Vaccine Candidates Against COVID-19 in Healthy Adults",C4591001 Clinical Protocol,"MDV.C4591001-Pfizer,-Inc.ADaM-IG.1.1","Study C4591001 Pfizer, Inc Data Definitions",2.0.0,ADaM-IG,1.1,IG.ADSL,ADSL,ADSL,Subject-Level Analysis Dataset,,,,,IT.ADSL.DOSPLVLN,DOSPLVLN,Planned Dosing Level (N),integer,8,DOSPLVLN,,,False,,,,,,,
FDA-CBER-2021-5683-1496005-1496178_27034_S1_M5_c4591001-safety-fa-eff-A-define.xml,"C4591001-Pfizer,-Inc.ADaM-IG.1.1","C4591001 Pfizer, Inc","A Phase 1/2/3 Study to Evaluate the Safety, Tolerability, Immunogenicity, and Efficacy of RNA Vaccine Candidates Against COVID-19 in Healthy Adults",C4591001 Clinical Protocol,"MDV.C4591001-Pfizer,-Inc.ADaM-IG.1.1","Study C4591001 Pfizer, Inc Data Definitions",2.0.0,ADaM-IG,1.1,IG.ADSL,ADSL,ADSL,Subject-Level Analysis Dataset,,,,,IT.ADSL.DOSALVLN,DOSALVLN,Actual Dosing Level (N),integer,8,DOSALVLN,,,False,,,,,,,
FDA-CBER-2021-5683-1496005-1496178_27034_S1_M5_c4591001-safety-fa-eff-A-define.xml,"C4591001-Pfizer,-Inc.ADaM-IG.1.1","C4591001 Pfizer, Inc","A Phase 1/2/3 Study to Evaluate the Safety, Tolerability, Immunogenicity, and Efficacy of RNA Vaccine Candidates Against COVID-19 in Healthy Adults",C4591001 Clinical Protocol,"MDV.C4591001-Pfizer,-Inc.ADaM-IG.1.1","Study C4591001 Pfizer, Inc Data Definitions",2.0.0,ADaM-IG,1.1,IG.ADSL,ADSL,ADSL,Subject-Level Analysis Dataset,,,,,IT.ADSL.CDECASE,CDECASE,Clinical disease endpoint case flag,text,3,CDECASE,,,True,,,,,,,
FDA-CBER-2021-5683-1496005-1496178_27034_S1_M5_c4591001-safety-fa-eff-A-define.xml,"C4591001-Pfizer,-Inc.ADaM-IG.1.1","C4591001 Pfizer, Inc","A Phase 1/2/3 Study to Evaluate the Safety, Tolerability, Immunogenicity, and Efficacy of RNA Vaccine Candidates Against COVID-19 in Healthy Adults",C4591001 Clinical Protocol,"MDV.C4591001-Pfizer,-Inc.ADaM-IG.1.1","Study C4591001 Pfizer, Inc Data Definitions",2.0.0,ADaM-IG,1.1,IG.ADSL,ADSL,ADSL,Subject-Level Analysis Dataset,,,,,IT.ADSL.AGEGR2N,AGEGR2N,Pooled Age Group 2 (N),integer,8,AGEGR2N,,,True,,,,,,,
FDA-CBER-2021-5683-1496005-1496178_27034_S1_M5_c4591001-safety-fa-eff-A-define.xml,"C4591001-Pfizer,-Inc.ADaM-IG.1.1","C4591001 Pfizer, Inc","A Phase 1/2/3 Study to Evaluate the Safety, Tolerability, Immunogenicity, and Efficacy of RNA Vaccine Candidates Against COVID-19 in Healthy Adults",C4591001 Clinical Protocol,"MDV.C4591001-Pfizer,-Inc.ADaM-IG.1.1","Study C4591001 Pfizer, Inc Data Definitions",2.0.0,ADaM-IG,1.1,IG.ADSL,ADSL,ADSL,Subject-Level Analysis Dataset,,,,,IT.ADSL.AGEGR2,AGEGR2,Pooled Age Group 2,text,10,AGEGR2,,,True,,MT.ADSL.AGEGR2,,,,,
FDA-CBER-2021-5683-1496005-1496178_27034_S1_M5_c4591001-safety-fa-eff-A-define.xml,"C4591001-Pfizer,-Inc.ADaM-IG.1.1","C4591001 Pfizer, Inc","A Phase 1/2/3 Study to Evaluate the Safety, Tolerability, Immunogenicity, and Efficacy of RNA Vaccine Candidates Against COVID-19 in Healthy Adults",C4591001 Clinical Protocol,"MDV.C4591001-Pfizer,-Inc.ADaM-IG.1.1","Study C4591001 Pfizer, Inc Data Definitions",2.0.0,ADaM-IG,1.1,IG.ADSL,ADSL,ADSL,Subject-Level Analysis Dataset,,,,,IT.ADSL.AGEGR3N,AGEGR3N,Pooled Age Group 3 (N),integer,8,AGEGR3N,,,False,,,,,,,
FDA-CBER-2021-5683-1496005-1496178_27034_S1_M5_c4591001-safety-fa-eff-A-define.xml,"C4591001-Pfizer,-Inc.ADaM-IG.1.1","C4591001 Pfizer, Inc","A Phase 1/2/3 Study to Evaluate the Safety, Tolerability, Immunogenicity, and Efficacy of RNA Vaccine Candidates Against COVID-19 in Healthy Adults",C4591001 Clinical Protocol,"MDV.C4591001-Pfizer,-Inc.ADaM-IG.1.1","Study C4591001 Pfizer, Inc Data Definitions",2.0.0,ADaM-IG,1.1,IG.ADSL,ADSL,ADSL,Subject-Level Analysis Dataset,,,,,IT.ADSL.AGEGR3,AGEGR3,Pooled Age Group 3,text,11,AGEGR3,,,False,,MT.ADSL.AGEGR3,,,,,
FDA-CBER-2021-5683-1496005-1496178_27034_S1_M5_c4591001-safety-fa-eff-A-define.xml,"C4591001-Pfizer,-Inc.ADaM-IG.1.1","C4591001 Pfizer, Inc","A Phase 1/2/3 Study to Evaluate the Safety, Tolerability, Immunogenicity, and Efficacy of RNA Vaccine Candidates Against COVID-19 in Healthy Adults",C4591001 Clinical Protocol,"MDV.C4591001-Pfizer,-Inc.ADaM-IG.1.1","Study C4591001 Pfizer, Inc Data Definitions",2.0.0,ADaM-IG,1.1,IG.ADSL,ADSL,ADSL,Subject-Level Analysis Dataset,,,,,IT.ADSL.VAX101TM,VAX101TM,Vaccination Time 01,integer,8,VAX101TM,,,False,,MT.ADSL.VAX101TM,,,,,
FDA-CBER-2021-5683-1496005-1496178_27034_S1_M5_c4591001-safety-fa-eff-A-define.xml,"C4591001-Pfizer,-Inc.ADaM-IG.1.1","C4591001 Pfizer, Inc","A Phase 1/2/3 Study to Evaluate the Safety, Tolerability, Immunogenicity, and Efficacy of RNA Vaccine Candidates Against COVID-19 in Healthy Adults",C4591001 Clinical Protocol,"MDV.C4591001-Pfizer,-Inc.ADaM-IG.1.1","Study C4591001 Pfizer, Inc Data Definitions",2.0.0,ADaM-IG,1.1,IG.ADSL,ADSL,ADSL,Subject-Level Analysis Dataset,,,,,IT.ADSL.VAX102TM,VAX102TM,Vaccination Time 02,integer,8,VAX102TM,,,False,,MT.ADSL.VAX102TM,,,,,
FDA-CBER-2021-5683-1496005-1496178_27034_S1_M5_c4591001-safety-fa-eff-A-define.xml,"C4591001-Pfizer,-Inc.ADaM-IG.1.1","C4591001 Pfizer, Inc","A Phase 1/2/3 Study to Evaluate the Safety, Tolerability, Immunogenicity, and Efficacy of RNA Vaccine Candidates Against COVID-19 in Healthy Adults",C4591001 Clinical Protocol,"MDV.C4591001-Pfizer,-Inc.ADaM-IG.1.1","Study C4591001 Pfizer, Inc Data Definitions",2.0.0,ADaM-IG,1.1,IG.ADSL,ADSL,ADSL,Subject-Level Analysis Dataset,,,,,IT.ADSL.VAX103TM,VAX103TM,Vaccination Time 03,integer,8,VAX103TM,,,False,,MT.ADSL.VAX103TM,,,,,
FDA-CBER-2021-5683-1496005-1496178_27034_S1_M5_c4591001-safety-fa-eff-A-define.xml,"C4591001-Pfizer,-Inc.ADaM-IG.1.1","C4591001 Pfizer, Inc","A Phase 1/2/3 Study to Evaluate the Safety, Tolerability, Immunogenicity, and Efficacy of RNA Vaccine Candidates Against COVID-19 in Healthy Adults",C4591001 Clinical Protocol,"MDV.C4591001-Pfizer,-Inc.ADaM-IG.1.1","Study C4591001 Pfizer, Inc Data Definitions",2.0.0,ADaM-IG,1.1,IG.ADSL,ADSL,ADSL,Subject-Level Analysis Dataset,,,,,IT.ADSL.VAX101,VAX101,Vaccination 01,text,37,VAX101,,,False,,MT.ADSL.VAX101,,,,,
FDA-CBER-2021-5683-1496005-1496178_27034_S1_M5_c4591001-safety-fa-eff-A-define.xml,"C4591001-Pfizer,-Inc.ADaM-IG.1.1","C4591001 Pfizer, Inc","A Phase 1/2/3 Study to Evaluate the Safety, Tolerability, Immunogenicity, and Efficacy of RNA Vaccine Candidates Against COVID-19 in Healthy Adults",C4591001 Clinical Protocol,"MDV.C4591001-Pfizer,-Inc.ADaM-IG.1.1","Study C4591001 Pfizer, Inc Data Definitions",2.0.0,ADaM-IG,1.1,IG.ADSL,ADSL,ADSL,Subject-Level Analysis Dataset,,,,,IT.ADSL.VAX102,VAX102,Vaccination 02,text,36,VAX102,,,False,,MT.ADSL.VAX102,,,,,
FDA-CBER-2021-5683-1496005-1496178_27034_S1_M5_c4591001-safety-fa-eff-A-define.xml,"C4591001-Pfizer,-Inc.ADaM-IG.1.1","C4591001 Pfizer, Inc","A Phase 1/2/3 Study to Evaluate the Safety, Tolerability, Immunogenicity, and Efficacy of RNA Vaccine Candidates Against COVID-19 in Healthy Adults",C4591001 Clinical Protocol,"MDV.C4591001-Pfizer,-Inc.ADaM-IG.1.1","Study C4591001 Pfizer, Inc Data Definitions",2.0.0,ADaM-IG,1.1,IG.ADSL,ADSL,ADSL,Subject-Level Analysis Dataset,,,,,IT.ADSL.VAX103,VAX103,Vaccination 03,text,36,VAX103,,,False,,MT.ADSL.VAX103,,,,,
FDA-CBER-2021-5683-1496005-1496178_27034_S1_M5_c4591001-safety-fa-eff-A-define.xml,"C4591001-Pfizer,-Inc.ADaM-IG.1.1","C4591001 Pfizer, Inc","A Phase 1/2/3 Study to Evaluate the Safety, Tolerability, Immunogenicity, and Efficacy of RNA Vaccine Candidates Against COVID-19 in Healthy Adults",C4591001 Clinical Protocol,"MDV.C4591001-Pfizer,-Inc.ADaM-IG.1.1","Study C4591001 Pfizer, Inc Data Definitions",2.0.0,ADaM-IG,1.1,IG.ADSL,ADSL,ADSL,Subject-Level Analysis Dataset,,,,,IT.ADSL.SCREEN,SCREEN,Screening,text,1,SCREEN,,,True,,MT.ADSL.SCREEN,,,,,
FDA-CBER-2021-5683-1496005-1496178_27034_S1_M5_c4591001-safety-fa-eff-A-define.xml,"C4591001-Pfizer,-Inc.ADaM-IG.1.1","C4591001 Pfizer, Inc","A Phase 1/2/3 Study to Evaluate the Safety, Tolerability, Immunogenicity, and Efficacy of RNA Vaccine Candidates Against COVID-19 in Healthy Adults",C4591001 Clinical Protocol,"MDV.C4591001-Pfizer,-Inc.ADaM-IG.1.1","Study C4591001 Pfizer, Inc Data Definitions",2.0.0,ADaM-IG,1.1,IG.ADSL,ADSL,ADSL,Subject-Level Analysis Dataset,,,,,IT.ADSL.COHORT,COHORT,Cohort Group,text,75,COHORT,,,False,,,,,,,
FDA-CBER-2021-5683-1496005-1496178_27034_S1_M5_c4591001-safety-fa-eff-A-define.xml,"C4591001-Pfizer,-Inc.ADaM-IG.1.1","C4591001 Pfizer, Inc","A Phase 1/2/3 Study to Evaluate the Safety, Tolerability, Immunogenicity, and Efficacy of RNA Vaccine Candidates Against COVID-19 in Healthy Adults",C4591001 Clinical Protocol,"MDV.C4591001-Pfizer,-Inc.ADaM-IG.1.1","Study C4591001 Pfizer, Inc Data Definitions",2.0.0,ADaM-IG,1.1,IG.ADSL,ADSL,ADSL,Subject-Level Analysis Dataset,,,,,IT.ADSL.COHORTN,COHORTN,Cohort Group (N),float,8,COHORTN,,,False,,,,,,,
FDA-CBER-2021-5683-1496005-1496178_27034_S1_M5_c4591001-safety-fa-eff-A-define.xml,"C4591001-Pfizer,-Inc.ADaM-IG.1.1","C4591001 Pfizer, Inc","A Phase 1/2/3 Study to Evaluate the Safety, Tolerability, Immunogenicity, and Efficacy of RNA Vaccine Candidates Against COVID-19 in Healthy Adults",C4591001 Clinical Protocol,"MDV.C4591001-Pfizer,-Inc.ADaM-IG.1.1","Study C4591001 Pfizer, Inc Data Definitions",2.0.0,ADaM-IG,1.1,IG.ADSL,ADSL,ADSL,Subject-Level Analysis Dataset,,,,,IT.ADSL.PHASEN,PHASEN,Study Phase (N),integer,8,PHASEN,,,True,,,,,,,
FDA-CBER-2021-5683-1496005-1496178_27034_S1_M5_c4591001-safety-fa-eff-A-define.xml,"C4591001-Pfizer,-Inc.ADaM-IG.1.1","C4591001 Pfizer, Inc","A Phase 1/2/3 Study to Evaluate the Safety, Tolerability, Immunogenicity, and Efficacy of RNA Vaccine Candidates Against COVID-19 in Healthy Adults",C4591001 Clinical Protocol,"MDV.C4591001-Pfizer,-Inc.ADaM-IG.1.1","Study C4591001 Pfizer, Inc Data Definitions",2.0.0,ADaM-IG,1.1,IG.ADSL,ADSL,ADSL,Subject-Level Analysis Dataset,,,,,IT.ADSL.PHASE,PHASE,Study Phase,text,20,PHASE,,,True,,MT.ADSL.PHASE,,,,,
FDA-CBER-2021-5683-1496005-1496178_27034_S1_M5_c4591001-safety-fa-eff-A-define.xml,"C4591001-Pfizer,-Inc.ADaM-IG.1.1","C4591001 Pfizer, Inc","A Phase 1/2/3 Study to Evaluate the Safety, Tolerability, Immunogenicity, and Efficacy of RNA Vaccine Candidates Against COVID-19 in Healthy Adults",C4591001 Clinical Protocol,"MDV.C4591001-Pfizer,-Inc.ADaM-IG.1.1","Study C4591001 Pfizer, Inc Data Definitions",2.0.0,ADaM-IG,1.1,IG.ADSL,ADSL,ADSL,Subject-Level Analysis Dataset,,,,,IT.ADSL.JPNFL,JPNFL,Japenese Subject Flag,text,1,JPNFL,,,True,,MT.ADSL.JPNFL,,CL.NY,NY,text,"N: No;
Y: Yes"
FDA-CBER-2021-5683-1496005-1496178_27034_S1_M5_c4591001-safety-fa-eff-A-define.xml,"C4591001-Pfizer,-Inc.ADaM-IG.1.1","C4591001 Pfizer, Inc","A Phase 1/2/3 Study to Evaluate the Safety, Tolerability, Immunogenicity, and Efficacy of RNA Vaccine Candidates Against COVID-19 in Healthy Adults",C4591001 Clinical Protocol,"MDV.C4591001-Pfizer,-Inc.ADaM-IG.1.1","Study C4591001 Pfizer, Inc Data Definitions",2.0.0,ADaM-IG,1.1,IG.ADSL,ADSL,ADSL,Subject-Level Analysis Dataset,,,,,IT.ADSL.V01DT,V01DT,Date of Visit at 1M after Vax2,integer,8,V01DT,,,False,,MT.ADSL.V01DT,,,,,
FDA-CBER-2021-5683-1496005-1496178_27034_S1_M5_c4591001-safety-fa-eff-A-define.xml,"C4591001-Pfizer,-Inc.ADaM-IG.1.1","C4591001 Pfizer, Inc","A Phase 1/2/3 Study to Evaluate the Safety, Tolerability, Immunogenicity, and Efficacy of RNA Vaccine Candidates Against COVID-19 in Healthy Adults",C4591001 Clinical Protocol,"MDV.C4591001-Pfizer,-Inc.ADaM-IG.1.1","Study C4591001 Pfizer, Inc Data Definitions",2.0.0,ADaM-IG,1.1,IG.ADSL,ADSL,ADSL,Subject-Level Analysis Dataset,,,,,IT.ADSL.V02DT,V02DT,Date of Visit at 6M after Vax2,integer,8,V02DT,,,False,,MT.ADSL.V02DT,,,,,
FDA-CBER-2021-5683-1496005-1496178_27034_S1_M5_c4591001-safety-fa-eff-A-define.xml,"C4591001-Pfizer,-Inc.ADaM-IG.1.1","C4591001 Pfizer, Inc","A Phase 1/2/3 Study to Evaluate the Safety, Tolerability, Immunogenicity, and Efficacy of RNA Vaccine Candidates Against COVID-19 in Healthy Adults",C4591001 Clinical Protocol,"MDV.C4591001-Pfizer,-Inc.ADaM-IG.1.1","Study C4591001 Pfizer, Inc Data Definitions",2.0.0,ADaM-IG,1.1,IG.ADSL,ADSL,ADSL,Subject-Level Analysis Dataset,,,,,IT.ADSL.DVSTDT,DVSTDT,Start Date of Important PD,integer,8,DVSTDT,,,False,,MT.ADSL.DVSTDT,,,,,
FDA-CBER-2021-5683-1496005-1496178_27034_S1_M5_c4591001-safety-fa-eff-A-define.xml,"C4591001-Pfizer,-Inc.ADaM-IG.1.1","C4591001 Pfizer, Inc","A Phase 1/2/3 Study to Evaluate the Safety, Tolerability, Immunogenicity, and Efficacy of RNA Vaccine Candidates Against COVID-19 in Healthy Adults",C4591001 Clinical Protocol,"MDV.C4591001-Pfizer,-Inc.ADaM-IG.1.1","Study C4591001 Pfizer, Inc Data Definitions",2.0.0,ADaM-IG,1.1,IG.ADSL,ADSL,ADSL,Subject-Level Analysis Dataset,,,,,IT.ADSL.BLDV1DT,BLDV1DT,Blood Sample Date before Vax 1,integer,8,BLDV1DT,,,False,,MT.ADSL.BLDV1DT,,,,,
FDA-CBER-2021-5683-1496005-1496178_27034_S1_M5_c4591001-safety-fa-eff-A-define.xml,"C4591001-Pfizer,-Inc.ADaM-IG.1.1","C4591001 Pfizer, Inc","A Phase 1/2/3 Study to Evaluate the Safety, Tolerability, Immunogenicity, and Efficacy of RNA Vaccine Candidates Against COVID-19 in Healthy Adults",C4591001 Clinical Protocol,"MDV.C4591001-Pfizer,-Inc.ADaM-IG.1.1","Study C4591001 Pfizer, Inc Data Definitions",2.0.0,ADaM-IG,1.1,IG.ADSL,ADSL,ADSL,Subject-Level Analysis Dataset,,,,,IT.ADSL.BLDV2DT,BLDV2DT,Blood Sample Date 1 Week after Vax 1,integer,8,BLDV2DT,,,False,,MT.ADSL.BLDV2DT,,,,,
FDA-CBER-2021-5683-1496005-1496178_27034_S1_M5_c4591001-safety-fa-eff-A-define.xml,"C4591001-Pfizer,-Inc.ADaM-IG.1.1","C4591001 Pfizer, Inc","A Phase 1/2/3 Study to Evaluate the Safety, Tolerability, Immunogenicity, and Efficacy of RNA Vaccine Candidates Against COVID-19 in Healthy Adults",C4591001 Clinical Protocol,"MDV.C4591001-Pfizer,-Inc.ADaM-IG.1.1","Study C4591001 Pfizer, Inc Data Definitions",2.0.0,ADaM-IG,1.1,IG.ADSL,ADSL,ADSL,Subject-Level Analysis Dataset,,,,,IT.ADSL.BLDV3ADT,BLDV3ADT,Additional Bld Sample Date 3W after Vax1,integer,8,BLDV3ADT,,,False,,MT.ADSL.BLDV3ADT,,,,,
FDA-CBER-2021-5683-1496005-1496178_27034_S1_M5_c4591001-safety-fa-eff-A-define.xml,"C4591001-Pfizer,-Inc.ADaM-IG.1.1","C4591001 Pfizer, Inc","A Phase 1/2/3 Study to Evaluate the Safety, Tolerability, Immunogenicity, and Efficacy of RNA Vaccine Candidates Against COVID-19 in Healthy Adults",C4591001 Clinical Protocol,"MDV.C4591001-Pfizer,-Inc.ADaM-IG.1.1","Study C4591001 Pfizer, Inc Data Definitions",2.0.0,ADaM-IG,1.1,IG.ADSL,ADSL,ADSL,Subject-Level Analysis Dataset,,,,,IT.ADSL.BLDV4ADT,BLDV4ADT,Additional Bld Sample Date 4W after Vax1,integer,8,BLDV4ADT,,,False,,MT.ADSL.BLDV4ADT,,,,,
FDA-CBER-2021-5683-1496005-1496178_27034_S1_M5_c4591001-safety-fa-eff-A-define.xml,"C4591001-Pfizer,-Inc.ADaM-IG.1.1","C4591001 Pfizer, Inc","A Phase 1/2/3 Study to Evaluate the Safety, Tolerability, Immunogenicity, and Efficacy of RNA Vaccine Candidates Against COVID-19 in Healthy Adults",C4591001 Clinical Protocol,"MDV.C4591001-Pfizer,-Inc.ADaM-IG.1.1","Study C4591001 Pfizer, Inc Data Definitions",2.0.0,ADaM-IG,1.1,IG.ADSL,ADSL,ADSL,Subject-Level Analysis Dataset,,,,,IT.ADSL.BLDV5ADT,BLDV5ADT,Additional Bld Sample Date 5W after Vax1,integer,8,BLDV5ADT,,,False,,MT.ADSL.BLDV5ADT,,,,,
FDA-CBER-2021-5683-1496005-1496178_27034_S1_M5_c4591001-safety-fa-eff-A-define.xml,"C4591001-Pfizer,-Inc.ADaM-IG.1.1","C4591001 Pfizer, Inc","A Phase 1/2/3 Study to Evaluate the Safety, Tolerability, Immunogenicity, and Efficacy of RNA Vaccine Candidates Against COVID-19 in Healthy Adults",C4591001 Clinical Protocol,"MDV.C4591001-Pfizer,-Inc.ADaM-IG.1.1","Study C4591001 Pfizer, Inc Data Definitions",2.0.0,ADaM-IG,1.1,IG.ADSL,ADSL,ADSL,Subject-Level Analysis Dataset,,,,,IT.ADSL.BLDV6ADT,BLDV6ADT,Additional Bld Sample Date 7W after Vax1,integer,8,BLDV6ADT,,,False,,MT.ADSL.BLDV6ADT,,,,,
FDA-CBER-2021-5683-1496005-1496178_27034_S1_M5_c4591001-safety-fa-eff-A-define.xml,"C4591001-Pfizer,-Inc.ADaM-IG.1.1","C4591001 Pfizer, Inc","A Phase 1/2/3 Study to Evaluate the Safety, Tolerability, Immunogenicity, and Efficacy of RNA Vaccine Candidates Against COVID-19 in Healthy Adults",C4591001 Clinical Protocol,"MDV.C4591001-Pfizer,-Inc.ADaM-IG.1.1","Study C4591001 Pfizer, Inc Data Definitions",2.0.0,ADaM-IG,1.1,IG.ADSL,ADSL,ADSL,Subject-Level Analysis Dataset,,,,,IT.ADSL.BLDV3DT,BLDV3DT,Blood Sample Date before Vax 2,integer,8,BLDV3DT,,,False,,MT.ADSL.BLDV3DT,,,,,
FDA-CBER-2021-5683-1496005-1496178_27034_S1_M5_c4591001-safety-fa-eff-A-define.xml,"C4591001-Pfizer,-Inc.ADaM-IG.1.1","C4591001 Pfizer, Inc","A Phase 1/2/3 Study to Evaluate the Safety, Tolerability, Immunogenicity, and Efficacy of RNA Vaccine Candidates Against COVID-19 in Healthy Adults",C4591001 Clinical Protocol,"MDV.C4591001-Pfizer,-Inc.ADaM-IG.1.1","Study C4591001 Pfizer, Inc Data Definitions",2.0.0,ADaM-IG,1.1,IG.ADSL,ADSL,ADSL,Subject-Level Analysis Dataset,,,,,IT.ADSL.BLDV4DT,BLDV4DT,Blood Sample Date 1 Week after Vax 2,integer,8,BLDV4DT,,,False,,MT.ADSL.BLDV4DT,,,,,
FDA-CBER-2021-5683-1496005-1496178_27034_S1_M5_c4591001-safety-fa-eff-A-define.xml,"C4591001-Pfizer,-Inc.ADaM-IG.1.1","C4591001 Pfizer, Inc","A Phase 1/2/3 Study to Evaluate the Safety, Tolerability, Immunogenicity, and Efficacy of RNA Vaccine Candidates Against COVID-19 in Healthy Adults",C4591001 Clinical Protocol,"MDV.C4591001-Pfizer,-Inc.ADaM-IG.1.1","Study C4591001 Pfizer, Inc Data Definitions",2.0.0,ADaM-IG,1.1,IG.ADSL,ADSL,ADSL,Subject-Level Analysis Dataset,,,,,IT.ADSL.BLDV5DT,BLDV5DT,Blood Sample Date 2 Weeks after Vax 2,integer,8,BLDV5DT,,,False,,MT.ADSL.BLDV5DT,,,,,
FDA-CBER-2021-5683-1496005-1496178_27034_S1_M5_c4591001-safety-fa-eff-A-define.xml,"C4591001-Pfizer,-Inc.ADaM-IG.1.1","C4591001 Pfizer, Inc","A Phase 1/2/3 Study to Evaluate the Safety, Tolerability, Immunogenicity, and Efficacy of RNA Vaccine Candidates Against COVID-19 in Healthy Adults",C4591001 Clinical Protocol,"MDV.C4591001-Pfizer,-Inc.ADaM-IG.1.1","Study C4591001 Pfizer, Inc Data Definitions",2.0.0,ADaM-IG,1.1,IG.ADSL,ADSL,ADSL,Subject-Level Analysis Dataset,,,,,IT.ADSL.BLDV6DT,BLDV6DT,Blood Sample Date 1 Month after Vax 2,integer,8,BLDV6DT,,,False,,MT.ADSL.BLDV6DT,,,,,
FDA-CBER-2021-5683-1496005-1496178_27034_S1_M5_c4591001-safety-fa-eff-A-define.xml,"C4591001-Pfizer,-Inc.ADaM-IG.1.1","C4591001 Pfizer, Inc","A Phase 1/2/3 Study to Evaluate the Safety, Tolerability, Immunogenicity, and Efficacy of RNA Vaccine Candidates Against COVID-19 in Healthy Adults",C4591001 Clinical Protocol,"MDV.C4591001-Pfizer,-Inc.ADaM-IG.1.1","Study C4591001 Pfizer, Inc Data Definitions",2.0.0,ADaM-IG,1.1,IG.ADSL,ADSL,ADSL,Subject-Level Analysis Dataset,,,,,IT.ADSL.BLDV7DT,BLDV7DT,Blood Sample Date 6 Months after Vax 2,integer,8,BLDV7DT,,,False,,MT.ADSL.BLDV7DT,,,,,
FDA-CBER-2021-5683-1496005-1496178_27034_S1_M5_c4591001-safety-fa-eff-A-define.xml,"C4591001-Pfizer,-Inc.ADaM-IG.1.1","C4591001 Pfizer, Inc","A Phase 1/2/3 Study to Evaluate the Safety, Tolerability, Immunogenicity, and Efficacy of RNA Vaccine Candidates Against COVID-19 in Healthy Adults",C4591001 Clinical Protocol,"MDV.C4591001-Pfizer,-Inc.ADaM-IG.1.1","Study C4591001 Pfizer, Inc Data Definitions",2.0.0,ADaM-IG,1.1,IG.ADSL,ADSL,ADSL,Subject-Level Analysis Dataset,,,,,IT.ADSL.INCL1FL,INCL1FL,Are eligible for the study at rand,text,1,INCL1FL,,,True,,MT.ADSL.INCL1FL,,CL.NY,NY,text,"N: No;
Y: Yes"
FDA-CBER-2021-5683-1496005-1496178_27034_S1_M5_c4591001-safety-fa-eff-A-define.xml,"C4591001-Pfizer,-Inc.ADaM-IG.1.1","C4591001 Pfizer, Inc","A Phase 1/2/3 Study to Evaluate the Safety, Tolerability, Immunogenicity, and Efficacy of RNA Vaccine Candidates Against COVID-19 in Healthy Adults",C4591001 Clinical Protocol,"MDV.C4591001-Pfizer,-Inc.ADaM-IG.1.1","Study C4591001 Pfizer, Inc Data Definitions",2.0.0,ADaM-IG,1.1,IG.ADSL,ADSL,ADSL,Subject-Level Analysis Dataset,,,,,IT.ADSL.INCL2FL,INCL2FL,Have received Vax 1 as randomized,text,1,INCL2FL,,,True,,MT.ADSL.INCL2FL,,CL.NY,NY,text,"N: No;
Y: Yes"
FDA-CBER-2021-5683-1496005-1496178_27034_S1_M5_c4591001-safety-fa-eff-A-define.xml,"C4591001-Pfizer,-Inc.ADaM-IG.1.1","C4591001 Pfizer, Inc","A Phase 1/2/3 Study to Evaluate the Safety, Tolerability, Immunogenicity, and Efficacy of RNA Vaccine Candidates Against COVID-19 in Healthy Adults",C4591001 Clinical Protocol,"MDV.C4591001-Pfizer,-Inc.ADaM-IG.1.1","Study C4591001 Pfizer, Inc Data Definitions",2.0.0,ADaM-IG,1.1,IG.ADSL,ADSL,ADSL,Subject-Level Analysis Dataset,,,,,IT.ADSL.INCL3FL,INCL3FL,Have valid and DTM immuno result 1,text,1,INCL3FL,,,True,,MT.ADSL.INCL3FL,,CL.NY,NY,text,"N: No;
Y: Yes"
FDA-CBER-2021-5683-1496005-1496178_27034_S1_M5_c4591001-safety-fa-eff-A-define.xml,"C4591001-Pfizer,-Inc.ADaM-IG.1.1","C4591001 Pfizer, Inc","A Phase 1/2/3 Study to Evaluate the Safety, Tolerability, Immunogenicity, and Efficacy of RNA Vaccine Candidates Against COVID-19 in Healthy Adults",C4591001 Clinical Protocol,"MDV.C4591001-Pfizer,-Inc.ADaM-IG.1.1","Study C4591001 Pfizer, Inc Data Definitions",2.0.0,ADaM-IG,1.1,IG.ADSL,ADSL,ADSL,Subject-Level Analysis Dataset,,,,,IT.ADSL.INCL4FL,INCL4FL,Have valid and DTM immuno result 2,text,1,INCL4FL,,,True,,MT.ADSL.INCL4FL,,CL.NY,NY,text,"N: No;
Y: Yes"
FDA-CBER-2021-5683-1496005-1496178_27034_S1_M5_c4591001-safety-fa-eff-A-define.xml,"C4591001-Pfizer,-Inc.ADaM-IG.1.1","C4591001 Pfizer, Inc","A Phase 1/2/3 Study to Evaluate the Safety, Tolerability, Immunogenicity, and Efficacy of RNA Vaccine Candidates Against COVID-19 in Healthy Adults",C4591001 Clinical Protocol,"MDV.C4591001-Pfizer,-Inc.ADaM-IG.1.1","Study C4591001 Pfizer, Inc Data Definitions",2.0.0,ADaM-IG,1.1,IG.ADSL,ADSL,ADSL,Subject-Level Analysis Dataset,,,,,IT.ADSL.INCL5FL,INCL5FL,Have BD within the timeframe 1,text,1,INCL5FL,,,True,,MT.ADSL.INCL5FL,,CL.NY,NY,text,"N: No;
Y: Yes"
FDA-CBER-2021-5683-1496005-1496178_27034_S1_M5_c4591001-safety-fa-eff-A-define.xml,"C4591001-Pfizer,-Inc.ADaM-IG.1.1","C4591001 Pfizer, Inc","A Phase 1/2/3 Study to Evaluate the Safety, Tolerability, Immunogenicity, and Efficacy of RNA Vaccine Candidates Against COVID-19 in Healthy Adults",C4591001 Clinical Protocol,"MDV.C4591001-Pfizer,-Inc.ADaM-IG.1.1","Study C4591001 Pfizer, Inc Data Definitions",2.0.0,ADaM-IG,1.1,IG.ADSL,ADSL,ADSL,Subject-Level Analysis Dataset,,,,,IT.ADSL.INCL6FL,INCL6FL,No important PD determined by clinician,text,1,INCL6FL,,,True,,MT.ADSL.INCL6FL,,CL.NY,NY,text,"N: No;
Y: Yes"
FDA-CBER-2021-5683-1496005-1496178_27034_S1_M5_c4591001-safety-fa-eff-A-define.xml,"C4591001-Pfizer,-Inc.ADaM-IG.1.1","C4591001 Pfizer, Inc","A Phase 1/2/3 Study to Evaluate the Safety, Tolerability, Immunogenicity, and Efficacy of RNA Vaccine Candidates Against COVID-19 in Healthy Adults",C4591001 Clinical Protocol,"MDV.C4591001-Pfizer,-Inc.ADaM-IG.1.1","Study C4591001 Pfizer, Inc Data Definitions",2.0.0,ADaM-IG,1.1,IG.ADSL,ADSL,ADSL,Subject-Level Analysis Dataset,,,,,IT.ADSL.INCL7FL,INCL7FL,Received 2 doses as rand within window,text,1,INCL7FL,,,True,,MT.ADSL.INCL7FL,,CL.NY,NY,text,"N: No;
Y: Yes"
FDA-CBER-2021-5683-1496005-1496178_27034_S1_M5_c4591001-safety-fa-eff-A-define.xml,"C4591001-Pfizer,-Inc.ADaM-IG.1.1","C4591001 Pfizer, Inc","A Phase 1/2/3 Study to Evaluate the Safety, Tolerability, Immunogenicity, and Efficacy of RNA Vaccine Candidates Against COVID-19 in Healthy Adults",C4591001 Clinical Protocol,"MDV.C4591001-Pfizer,-Inc.ADaM-IG.1.1","Study C4591001 Pfizer, Inc Data Definitions",2.0.0,ADaM-IG,1.1,IG.ADSL,ADSL,ADSL,Subject-Level Analysis Dataset,,,,,IT.ADSL.INCL8FL,INCL8FL,Have valid and DTM immuno result 3,text,1,INCL8FL,,,True,,MT.ADSL.INCL8FL,,CL.NY,NY,text,"N: No;
Y: Yes"
FDA-CBER-2021-5683-1496005-1496178_27034_S1_M5_c4591001-safety-fa-eff-A-define.xml,"C4591001-Pfizer,-Inc.ADaM-IG.1.1","C4591001 Pfizer, Inc","A Phase 1/2/3 Study to Evaluate the Safety, Tolerability, Immunogenicity, and Efficacy of RNA Vaccine Candidates Against COVID-19 in Healthy Adults",C4591001 Clinical Protocol,"MDV.C4591001-Pfizer,-Inc.ADaM-IG.1.1","Study C4591001 Pfizer, Inc Data Definitions",2.0.0,ADaM-IG,1.1,IG.ADSL,ADSL,ADSL,Subject-Level Analysis Dataset,,,,,IT.ADSL.INCL9FL,INCL9FL,Have BD within the timeframe 2,text,1,INCL9FL,,,True,,MT.ADSL.INCL9FL,,CL.NY,NY,text,"N: No;
Y: Yes"
FDA-CBER-2021-5683-1496005-1496178_27034_S1_M5_c4591001-safety-fa-eff-A-define.xml,"C4591001-Pfizer,-Inc.ADaM-IG.1.1","C4591001 Pfizer, Inc","A Phase 1/2/3 Study to Evaluate the Safety, Tolerability, Immunogenicity, and Efficacy of RNA Vaccine Candidates Against COVID-19 in Healthy Adults",C4591001 Clinical Protocol,"MDV.C4591001-Pfizer,-Inc.ADaM-IG.1.1","Study C4591001 Pfizer, Inc Data Definitions",2.0.0,ADaM-IG,1.1,IG.ADSL,ADSL,ADSL,Subject-Level Analysis Dataset,,,,,IT.ADSL.EVALEFFL,EVALEFFL,Evaluable Efficacy Popu Flag,text,1,EVALEFFL,,,True,,MT.ADSL.EVALEFFL,,CL.NY,NY,text,"N: No;
Y: Yes"
FDA-CBER-2021-5683-1496005-1496178_27034_S1_M5_c4591001-safety-fa-eff-A-define.xml,"C4591001-Pfizer,-Inc.ADaM-IG.1.1","C4591001 Pfizer, Inc","A Phase 1/2/3 Study to Evaluate the Safety, Tolerability, Immunogenicity, and Efficacy of RNA Vaccine Candidates Against COVID-19 in Healthy Adults",C4591001 Clinical Protocol,"MDV.C4591001-Pfizer,-Inc.ADaM-IG.1.1","Study C4591001 Pfizer, Inc Data Definitions",2.0.0,ADaM-IG,1.1,IG.ADSL,ADSL,ADSL,Subject-Level Analysis Dataset,,,,,IT.ADSL.EV14EFFL,EV14EFFL,Evaluable Efficacy Popu Flag - 14 days,text,1,EV14EFFL,,,True,,MT.ADSL.EV14EFFL,,,,,
FDA-CBER-2021-5683-1496005-1496178_27034_S1_M5_c4591001-safety-fa-eff-A-define.xml,"C4591001-Pfizer,-Inc.ADaM-IG.1.1","C4591001 Pfizer, Inc","A Phase 1/2/3 Study to Evaluate the Safety, Tolerability, Immunogenicity, and Efficacy of RNA Vaccine Candidates Against COVID-19 in Healthy Adults",C4591001 Clinical Protocol,"MDV.C4591001-Pfizer,-Inc.ADaM-IG.1.1","Study C4591001 Pfizer, Inc Data Definitions",2.0.0,ADaM-IG,1.1,IG.ADSL,ADSL,ADSL,Subject-Level Analysis Dataset,,,,,IT.ADSL.AAI1EFFL,AAI1EFFL,Dose 1 all-available Efficacy Popu Flag,text,1,AAI1EFFL,,,True,,MT.ADSL.AAI1EFFL,,CL.NY,NY,text,"N: No;
Y: Yes"
FDA-CBER-2021-5683-1496005-1496178_27034_S1_M5_c4591001-safety-fa-eff-A-define.xml,"C4591001-Pfizer,-Inc.ADaM-IG.1.1","C4591001 Pfizer, Inc","A Phase 1/2/3 Study to Evaluate the Safety, Tolerability, Immunogenicity, and Efficacy of RNA Vaccine Candidates Against COVID-19 in Healthy Adults",C4591001 Clinical Protocol,"MDV.C4591001-Pfizer,-Inc.ADaM-IG.1.1","Study C4591001 Pfizer, Inc Data Definitions",2.0.0,ADaM-IG,1.1,IG.ADSL,ADSL,ADSL,Subject-Level Analysis Dataset,,,,,IT.ADSL.AAI2EFFL,AAI2EFFL,Dose 2 all-available Efficacy Popu Flag,text,1,AAI2EFFL,,,True,,MT.ADSL.AAI2EFFL,,CL.NY,NY,text,"N: No;
Y: Yes"
FDA-CBER-2021-5683-1496005-1496178_27034_S1_M5_c4591001-safety-fa-eff-A-define.xml,"C4591001-Pfizer,-Inc.ADaM-IG.1.1","C4591001 Pfizer, Inc","A Phase 1/2/3 Study to Evaluate the Safety, Tolerability, Immunogenicity, and Efficacy of RNA Vaccine Candidates Against COVID-19 in Healthy Adults",C4591001 Clinical Protocol,"MDV.C4591001-Pfizer,-Inc.ADaM-IG.1.1","Study C4591001 Pfizer, Inc Data Definitions",2.0.0,ADaM-IG,1.1,IG.ADSL,ADSL,ADSL,Subject-Level Analysis Dataset,,,,,IT.ADSL.BLDV1FL,BLDV1FL,Blood Sample Drawn before Vax 1,text,1,BLDV1FL,,,True,,MT.ADSL.BLDV1FL,,CL.NY,NY,text,"N: No;
Y: Yes"
FDA-CBER-2021-5683-1496005-1496178_27034_S1_M5_c4591001-safety-fa-eff-A-define.xml,"C4591001-Pfizer,-Inc.ADaM-IG.1.1","C4591001 Pfizer, Inc","A Phase 1/2/3 Study to Evaluate the Safety, Tolerability, Immunogenicity, and Efficacy of RNA Vaccine Candidates Against COVID-19 in Healthy Adults",C4591001 Clinical Protocol,"MDV.C4591001-Pfizer,-Inc.ADaM-IG.1.1","Study C4591001 Pfizer, Inc Data Definitions",2.0.0,ADaM-IG,1.1,IG.ADSL,ADSL,ADSL,Subject-Level Analysis Dataset,,,,,IT.ADSL.BLDV2FL,BLDV2FL,Blood Sample Drawn 1 Week after Vax 1,text,1,BLDV2FL,,,True,,MT.ADSL.BLDV2FL,,CL.NY,NY,text,"N: No;
Y: Yes"
FDA-CBER-2021-5683-1496005-1496178_27034_S1_M5_c4591001-safety-fa-eff-A-define.xml,"C4591001-Pfizer,-Inc.ADaM-IG.1.1","C4591001 Pfizer, Inc","A Phase 1/2/3 Study to Evaluate the Safety, Tolerability, Immunogenicity, and Efficacy of RNA Vaccine Candidates Against COVID-19 in Healthy Adults",C4591001 Clinical Protocol,"MDV.C4591001-Pfizer,-Inc.ADaM-IG.1.1","Study C4591001 Pfizer, Inc Data Definitions",2.0.0,ADaM-IG,1.1,IG.ADSL,ADSL,ADSL,Subject-Level Analysis Dataset,,,,,IT.ADSL.BLDV3FL,BLDV3FL,Blood Sample Drawn before Vax 2,text,1,BLDV3FL,,,True,,MT.ADSL.BLDV3FL,,CL.NY,NY,text,"N: No;
Y: Yes"
FDA-CBER-2021-5683-1496005-1496178_27034_S1_M5_c4591001-safety-fa-eff-A-define.xml,"C4591001-Pfizer,-Inc.ADaM-IG.1.1","C4591001 Pfizer, Inc","A Phase 1/2/3 Study to Evaluate the Safety, Tolerability, Immunogenicity, and Efficacy of RNA Vaccine Candidates Against COVID-19 in Healthy Adults",C4591001 Clinical Protocol,"MDV.C4591001-Pfizer,-Inc.ADaM-IG.1.1","Study C4591001 Pfizer, Inc Data Definitions",2.0.0,ADaM-IG,1.1,IG.ADSL,ADSL,ADSL,Subject-Level Analysis Dataset,,,,,IT.ADSL.BLDV4FL,BLDV4FL,Blood Sample Drawn 1 Week after Vax 2,text,1,BLDV4FL,,,True,,MT.ADSL.BLDV4FL,,CL.NY,NY,text,"N: No;
Y: Yes"
FDA-CBER-2021-5683-1496005-1496178_27034_S1_M5_c4591001-safety-fa-eff-A-define.xml,"C4591001-Pfizer,-Inc.ADaM-IG.1.1","C4591001 Pfizer, Inc","A Phase 1/2/3 Study to Evaluate the Safety, Tolerability, Immunogenicity, and Efficacy of RNA Vaccine Candidates Against COVID-19 in Healthy Adults",C4591001 Clinical Protocol,"MDV.C4591001-Pfizer,-Inc.ADaM-IG.1.1","Study C4591001 Pfizer, Inc Data Definitions",2.0.0,ADaM-IG,1.1,IG.ADSL,ADSL,ADSL,Subject-Level Analysis Dataset,,,,,IT.ADSL.BLDV5FL,BLDV5FL,Blood Sample Drawn 2 Weeks after Vax 2,text,1,BLDV5FL,,,True,,MT.ADSL.BLDV5FL,,CL.NY,NY,text,"N: No;
Y: Yes"
FDA-CBER-2021-5683-1496005-1496178_27034_S1_M5_c4591001-safety-fa-eff-A-define.xml,"C4591001-Pfizer,-Inc.ADaM-IG.1.1","C4591001 Pfizer, Inc","A Phase 1/2/3 Study to Evaluate the Safety, Tolerability, Immunogenicity, and Efficacy of RNA Vaccine Candidates Against COVID-19 in Healthy Adults",C4591001 Clinical Protocol,"MDV.C4591001-Pfizer,-Inc.ADaM-IG.1.1","Study C4591001 Pfizer, Inc Data Definitions",2.0.0,ADaM-IG,1.1,IG.ADSL,ADSL,ADSL,Subject-Level Analysis Dataset,,,,,IT.ADSL.BLDV6FL,BLDV6FL,Blood Sample Drawn 1 Month after Vax 2,text,1,BLDV6FL,,,True,,MT.ADSL.BLDV6FL,,CL.NY,NY,text,"N: No;
Y: Yes"
FDA-CBER-2021-5683-1496005-1496178_27034_S1_M5_c4591001-safety-fa-eff-A-define.xml,"C4591001-Pfizer,-Inc.ADaM-IG.1.1","C4591001 Pfizer, Inc","A Phase 1/2/3 Study to Evaluate the Safety, Tolerability, Immunogenicity, and Efficacy of RNA Vaccine Candidates Against COVID-19 in Healthy Adults",C4591001 Clinical Protocol,"MDV.C4591001-Pfizer,-Inc.ADaM-IG.1.1","Study C4591001 Pfizer, Inc Data Definitions",2.0.0,ADaM-IG,1.1,IG.ADSL,ADSL,ADSL,Subject-Level Analysis Dataset,,,,,IT.ADSL.BLDV7FL,BLDV7FL,Blood Sample Drawn 6 Months after Vax 2,text,1,BLDV7FL,,,True,,MT.ADSL.BLDV7FL,,CL.NY,NY,text,"N: No;
Y: Yes"
FDA-CBER-2021-5683-1496005-1496178_27034_S1_M5_c4591001-safety-fa-eff-A-define.xml,"C4591001-Pfizer,-Inc.ADaM-IG.1.1","C4591001 Pfizer, Inc","A Phase 1/2/3 Study to Evaluate the Safety, Tolerability, Immunogenicity, and Efficacy of RNA Vaccine Candidates Against COVID-19 in Healthy Adults",C4591001 Clinical Protocol,"MDV.C4591001-Pfizer,-Inc.ADaM-IG.1.1","Study C4591001 Pfizer, Inc Data Definitions",2.0.0,ADaM-IG,1.1,IG.ADSL,ADSL,ADSL,Subject-Level Analysis Dataset,,,,,IT.ADSL.MULENRFL,MULENRFL,Multiply Enrolled Subjects,text,1,MULENRFL,,,False,,MT.ADSL.MULENRFL,,CL.Y,Y,text,Y: Yes
FDA-CBER-2021-5683-1496005-1496178_27034_S1_M5_c4591001-safety-fa-eff-A-define.xml,"C4591001-Pfizer,-Inc.ADaM-IG.1.1","C4591001 Pfizer, Inc","A Phase 1/2/3 Study to Evaluate the Safety, Tolerability, Immunogenicity, and Efficacy of RNA Vaccine Candidates Against COVID-19 in Healthy Adults",C4591001 Clinical Protocol,"MDV.C4591001-Pfizer,-Inc.ADaM-IG.1.1","Study C4591001 Pfizer, Inc Data Definitions",2.0.0,ADaM-IG,1.1,IG.ADSL,ADSL,ADSL,Subject-Level Analysis Dataset,,,,,IT.ADSL.STEXCFL,STEXCFL,Site/Subject Exclusion Flag for SQE,text,1,STEXCFL,,,False,,MT.ADSL.STEXCFL,,CL.Y,Y,text,Y: Yes
FDA-CBER-2021-5683-1496005-1496178_27034_S1_M5_c4591001-safety-fa-eff-A-define.xml,"C4591001-Pfizer,-Inc.ADaM-IG.1.1","C4591001 Pfizer, Inc","A Phase 1/2/3 Study to Evaluate the Safety, Tolerability, Immunogenicity, and Efficacy of RNA Vaccine Candidates Against COVID-19 in Healthy Adults",C4591001 Clinical Protocol,"MDV.C4591001-Pfizer,-Inc.ADaM-IG.1.1","Study C4591001 Pfizer, Inc Data Definitions",2.0.0,ADaM-IG,1.1,IG.ADSL,ADSL,ADSL,Subject-Level Analysis Dataset,,,,,IT.ADSL.UNKRDFL,UNKRDFL,Unknown Randomization Group Flag,text,1,UNKRDFL,,,False,,MT.ADSL.UNKRDFL,,CL.Y,Y,text,Y: Yes
FDA-CBER-2021-5683-1496005-1496178_27034_S1_M5_c4591001-safety-fa-eff-A-define.xml,"C4591001-Pfizer,-Inc.ADaM-IG.1.1","C4591001 Pfizer, Inc","A Phase 1/2/3 Study to Evaluate the Safety, Tolerability, Immunogenicity, and Efficacy of RNA Vaccine Candidates Against COVID-19 in Healthy Adults",C4591001 Clinical Protocol,"MDV.C4591001-Pfizer,-Inc.ADaM-IG.1.1","Study C4591001 Pfizer, Inc Data Definitions",2.0.0,ADaM-IG,1.1,IG.ADSL,ADSL,ADSL,Subject-Level Analysis Dataset,,,,,IT.ADSL.EXCL3FL,EXCL3FL,Exclusion Flag 3,text,1,EXCL3FL,,,False,,MT.ADSL.EXCL3FL,,CL.NY,NY,text,"N: No;
Y: Yes"
FDA-CBER-2021-5683-1496005-1496178_27034_S1_M5_c4591001-safety-fa-eff-A-define.xml,"C4591001-Pfizer,-Inc.ADaM-IG.1.1","C4591001 Pfizer, Inc","A Phase 1/2/3 Study to Evaluate the Safety, Tolerability, Immunogenicity, and Efficacy of RNA Vaccine Candidates Against COVID-19 in Healthy Adults",C4591001 Clinical Protocol,"MDV.C4591001-Pfizer,-Inc.ADaM-IG.1.1","Study C4591001 Pfizer, Inc Data Definitions",2.0.0,ADaM-IG,1.1,IG.ADSL,ADSL,ADSL,Subject-Level Analysis Dataset,,,,,IT.ADSL.EXCRIT3,EXCRIT3,Exclusion Criterion 3,text,98,EXCRIT3,,,False,,MT.ADSL.EXCRIT3,,,,,
FDA-CBER-2021-5683-1496005-1496178_27034_S1_M5_c4591001-safety-fa-eff-A-define.xml,"C4591001-Pfizer,-Inc.ADaM-IG.1.1","C4591001 Pfizer, Inc","A Phase 1/2/3 Study to Evaluate the Safety, Tolerability, Immunogenicity, and Efficacy of RNA Vaccine Candidates Against COVID-19 in Healthy Adults",C4591001 Clinical Protocol,"MDV.C4591001-Pfizer,-Inc.ADaM-IG.1.1","Study C4591001 Pfizer, Inc Data Definitions",2.0.0,ADaM-IG,1.1,IG.ADSL,ADSL,ADSL,Subject-Level Analysis Dataset,,,,,IT.ADSL.EXCL8FL,EXCL8FL,Exclusion Flag 8,text,1,EXCL8FL,,,False,,MT.ADSL.EXCL8FL,,CL.NY,NY,text,"N: No;
Y: Yes"
FDA-CBER-2021-5683-1496005-1496178_27034_S1_M5_c4591001-safety-fa-eff-A-define.xml,"C4591001-Pfizer,-Inc.ADaM-IG.1.1","C4591001 Pfizer, Inc","A Phase 1/2/3 Study to Evaluate the Safety, Tolerability, Immunogenicity, and Efficacy of RNA Vaccine Candidates Against COVID-19 in Healthy Adults",C4591001 Clinical Protocol,"MDV.C4591001-Pfizer,-Inc.ADaM-IG.1.1","Study C4591001 Pfizer, Inc Data Definitions",2.0.0,ADaM-IG,1.1,IG.ADSL,ADSL,ADSL,Subject-Level Analysis Dataset,,,,,IT.ADSL.EXCRIT8,EXCRIT8,Exclusion Criterion 8,text,80,EXCRIT8,,,False,,MT.ADSL.EXCRIT8,,,,,
FDA-CBER-2021-5683-1496005-1496178_27034_S1_M5_c4591001-safety-fa-eff-A-define.xml,"C4591001-Pfizer,-Inc.ADaM-IG.1.1","C4591001 Pfizer, Inc","A Phase 1/2/3 Study to Evaluate the Safety, Tolerability, Immunogenicity, and Efficacy of RNA Vaccine Candidates Against COVID-19 in Healthy Adults",C4591001 Clinical Protocol,"MDV.C4591001-Pfizer,-Inc.ADaM-IG.1.1","Study C4591001 Pfizer, Inc Data Definitions",2.0.0,ADaM-IG,1.1,IG.ADSL,ADSL,ADSL,Subject-Level Analysis Dataset,,,,,IT.ADSL.EXCL1FL,EXCL1FL,Exclusion Flag 1,text,1,EXCL1FL,,,False,,MT.ADSL.EXCL1FL,,CL.NY,NY,text,"N: No;
Y: Yes"
FDA-CBER-2021-5683-1496005-1496178_27034_S1_M5_c4591001-safety-fa-eff-A-define.xml,"C4591001-Pfizer,-Inc.ADaM-IG.1.1","C4591001 Pfizer, Inc","A Phase 1/2/3 Study to Evaluate the Safety, Tolerability, Immunogenicity, and Efficacy of RNA Vaccine Candidates Against COVID-19 in Healthy Adults",C4591001 Clinical Protocol,"MDV.C4591001-Pfizer,-Inc.ADaM-IG.1.1","Study C4591001 Pfizer, Inc Data Definitions",2.0.0,ADaM-IG,1.1,IG.ADSL,ADSL,ADSL,Subject-Level Analysis Dataset,,,,,IT.ADSL.EXCRIT1,EXCRIT1,Exclusion Criterion 1,text,43,EXCRIT1,,,False,,MT.ADSL.EXCRIT1,,,,,
FDA-CBER-2021-5683-1496005-1496178_27034_S1_M5_c4591001-safety-fa-eff-A-define.xml,"C4591001-Pfizer,-Inc.ADaM-IG.1.1","C4591001 Pfizer, Inc","A Phase 1/2/3 Study to Evaluate the Safety, Tolerability, Immunogenicity, and Efficacy of RNA Vaccine Candidates Against COVID-19 in Healthy Adults",C4591001 Clinical Protocol,"MDV.C4591001-Pfizer,-Inc.ADaM-IG.1.1","Study C4591001 Pfizer, Inc Data Definitions",2.0.0,ADaM-IG,1.1,IG.ADSL,ADSL,ADSL,Subject-Level Analysis Dataset,,,,,IT.ADSL.EXCL2FL,EXCL2FL,Exclusion Flag 2,text,1,EXCL2FL,,,False,,MT.ADSL.EXCL2FL,,CL.NY,NY,text,"N: No;
Y: Yes"
FDA-CBER-2021-5683-1496005-1496178_27034_S1_M5_c4591001-safety-fa-eff-A-define.xml,"C4591001-Pfizer,-Inc.ADaM-IG.1.1","C4591001 Pfizer, Inc","A Phase 1/2/3 Study to Evaluate the Safety, Tolerability, Immunogenicity, and Efficacy of RNA Vaccine Candidates Against COVID-19 in Healthy Adults",C4591001 Clinical Protocol,"MDV.C4591001-Pfizer,-Inc.ADaM-IG.1.1","Study C4591001 Pfizer, Inc Data Definitions",2.0.0,ADaM-IG,1.1,IG.ADSL,ADSL,ADSL,Subject-Level Analysis Dataset,,,,,IT.ADSL.EXCRIT2,EXCRIT2,Exclusion Criterion 2,text,36,EXCRIT2,,,False,,MT.ADSL.EXCRIT2,,,,,
FDA-CBER-2021-5683-1496005-1496178_27034_S1_M5_c4591001-safety-fa-eff-A-define.xml,"C4591001-Pfizer,-Inc.ADaM-IG.1.1","C4591001 Pfizer, Inc","A Phase 1/2/3 Study to Evaluate the Safety, Tolerability, Immunogenicity, and Efficacy of RNA Vaccine Candidates Against COVID-19 in Healthy Adults",C4591001 Clinical Protocol,"MDV.C4591001-Pfizer,-Inc.ADaM-IG.1.1","Study C4591001 Pfizer, Inc Data Definitions",2.0.0,ADaM-IG,1.1,IG.ADSL,ADSL,ADSL,Subject-Level Analysis Dataset,,,,,IT.ADSL.EXCL4FL,EXCL4FL,Exclusion Flag 4,text,1,EXCL4FL,,,False,,MT.ADSL.EXCL4FL,,CL.NY,NY,text,"N: No;
Y: Yes"
FDA-CBER-2021-5683-1496005-1496178_27034_S1_M5_c4591001-safety-fa-eff-A-define.xml,"C4591001-Pfizer,-Inc.ADaM-IG.1.1","C4591001 Pfizer, Inc","A Phase 1/2/3 Study to Evaluate the Safety, Tolerability, Immunogenicity, and Efficacy of RNA Vaccine Candidates Against COVID-19 in Healthy Adults",C4591001 Clinical Protocol,"MDV.C4591001-Pfizer,-Inc.ADaM-IG.1.1","Study C4591001 Pfizer, Inc Data Definitions",2.0.0,ADaM-IG,1.1,IG.ADSL,ADSL,ADSL,Subject-Level Analysis Dataset,,,,,IT.ADSL.EXCRIT4,EXCRIT4,Exclusion Criterion 4,text,88,EXCRIT4,,,False,,MT.ADSL.EXCRIT4,,,,,
FDA-CBER-2021-5683-1496005-1496178_27034_S1_M5_c4591001-safety-fa-eff-A-define.xml,"C4591001-Pfizer,-Inc.ADaM-IG.1.1","C4591001 Pfizer, Inc","A Phase 1/2/3 Study to Evaluate the Safety, Tolerability, Immunogenicity, and Efficacy of RNA Vaccine Candidates Against COVID-19 in Healthy Adults",C4591001 Clinical Protocol,"MDV.C4591001-Pfizer,-Inc.ADaM-IG.1.1","Study C4591001 Pfizer, Inc Data Definitions",2.0.0,ADaM-IG,1.1,IG.ADSL,ADSL,ADSL,Subject-Level Analysis Dataset,,,,,IT.ADSL.EXCL5FL,EXCL5FL,Exclusion Flag 5,text,1,EXCL5FL,,,False,,MT.ADSL.EXCL5FL,,CL.NY,NY,text,"N: No;
Y: Yes"
FDA-CBER-2021-5683-1496005-1496178_27034_S1_M5_c4591001-safety-fa-eff-A-define.xml,"C4591001-Pfizer,-Inc.ADaM-IG.1.1","C4591001 Pfizer, Inc","A Phase 1/2/3 Study to Evaluate the Safety, Tolerability, Immunogenicity, and Efficacy of RNA Vaccine Candidates Against COVID-19 in Healthy Adults",C4591001 Clinical Protocol,"MDV.C4591001-Pfizer,-Inc.ADaM-IG.1.1","Study C4591001 Pfizer, Inc Data Definitions",2.0.0,ADaM-IG,1.1,IG.ADSL,ADSL,ADSL,Subject-Level Analysis Dataset,,,,,IT.ADSL.EXCRIT5,EXCRIT5,Exclusion Criterion 5,text,60,EXCRIT5,,,False,,MT.ADSL.EXCRIT5,,,,,
FDA-CBER-2021-5683-1496005-1496178_27034_S1_M5_c4591001-safety-fa-eff-A-define.xml,"C4591001-Pfizer,-Inc.ADaM-IG.1.1","C4591001 Pfizer, Inc","A Phase 1/2/3 Study to Evaluate the Safety, Tolerability, Immunogenicity, and Efficacy of RNA Vaccine Candidates Against COVID-19 in Healthy Adults",C4591001 Clinical Protocol,"MDV.C4591001-Pfizer,-Inc.ADaM-IG.1.1","Study C4591001 Pfizer, Inc Data Definitions",2.0.0,ADaM-IG,1.1,IG.ADSL,ADSL,ADSL,Subject-Level Analysis Dataset,,,,,IT.ADSL.EXCL7FL,EXCL7FL,Exclusion Flag 7,text,1,EXCL7FL,,,False,,MT.ADSL.EXCL7FL,,CL.NY,NY,text,"N: No;
Y: Yes"
FDA-CBER-2021-5683-1496005-1496178_27034_S1_M5_c4591001-safety-fa-eff-A-define.xml,"C4591001-Pfizer,-Inc.ADaM-IG.1.1","C4591001 Pfizer, Inc","A Phase 1/2/3 Study to Evaluate the Safety, Tolerability, Immunogenicity, and Efficacy of RNA Vaccine Candidates Against COVID-19 in Healthy Adults",C4591001 Clinical Protocol,"MDV.C4591001-Pfizer,-Inc.ADaM-IG.1.1","Study C4591001 Pfizer, Inc Data Definitions",2.0.0,ADaM-IG,1.1,IG.ADSL,ADSL,ADSL,Subject-Level Analysis Dataset,,,,,IT.ADSL.EXCRIT7,EXCRIT7,Exclusion Criterion 7,text,129,EXCRIT7,,,False,,MT.ADSL.EXCRIT7,,,,,
FDA-CBER-2021-5683-1496005-1496178_27034_S1_M5_c4591001-safety-fa-eff-A-define.xml,"C4591001-Pfizer,-Inc.ADaM-IG.1.1","C4591001 Pfizer, Inc","A Phase 1/2/3 Study to Evaluate the Safety, Tolerability, Immunogenicity, and Efficacy of RNA Vaccine Candidates Against COVID-19 in Healthy Adults",C4591001 Clinical Protocol,"MDV.C4591001-Pfizer,-Inc.ADaM-IG.1.1","Study C4591001 Pfizer, Inc Data Definitions",2.0.0,ADaM-IG,1.1,IG.ADSL,ADSL,ADSL,Subject-Level Analysis Dataset,,,,,IT.ADSL.EXCL9FL,EXCL9FL,Exclusion Flag 9,text,1,EXCL9FL,,,False,,MT.ADSL.EXCL9FL,,CL.NY,NY,text,"N: No;
Y: Yes"
FDA-CBER-2021-5683-1496005-1496178_27034_S1_M5_c4591001-safety-fa-eff-A-define.xml,"C4591001-Pfizer,-Inc.ADaM-IG.1.1","C4591001 Pfizer, Inc","A Phase 1/2/3 Study to Evaluate the Safety, Tolerability, Immunogenicity, and Efficacy of RNA Vaccine Candidates Against COVID-19 in Healthy Adults",C4591001 Clinical Protocol,"MDV.C4591001-Pfizer,-Inc.ADaM-IG.1.1","Study C4591001 Pfizer, Inc Data Definitions",2.0.0,ADaM-IG,1.1,IG.ADSL,ADSL,ADSL,Subject-Level Analysis Dataset,,,,,IT.ADSL.EXCRIT9,EXCRIT9,Exclusion Criterion 9,text,60,EXCRIT9,,,False,,MT.ADSL.EXCRIT9,,,,,
FDA-CBER-2021-5683-1496005-1496178_27034_S1_M5_c4591001-safety-fa-eff-A-define.xml,"C4591001-Pfizer,-Inc.ADaM-IG.1.1","C4591001 Pfizer, Inc","A Phase 1/2/3 Study to Evaluate the Safety, Tolerability, Immunogenicity, and Efficacy of RNA Vaccine Candidates Against COVID-19 in Healthy Adults",C4591001 Clinical Protocol,"MDV.C4591001-Pfizer,-Inc.ADaM-IG.1.1","Study C4591001 Pfizer, Inc Data Definitions",2.0.0,ADaM-IG,1.1,IG.ADSL,ADSL,ADSL,Subject-Level Analysis Dataset,,,,,IT.ADSL.EXCL6FL,EXCL6FL,Exclusion Flag 6,text,1,EXCL6FL,,,False,,MT.ADSL.EXCL6FL,,CL.NY,NY,text,"N: No;
Y: Yes"
FDA-CBER-2021-5683-1496005-1496178_27034_S1_M5_c4591001-safety-fa-eff-A-define.xml,"C4591001-Pfizer,-Inc.ADaM-IG.1.1","C4591001 Pfizer, Inc","A Phase 1/2/3 Study to Evaluate the Safety, Tolerability, Immunogenicity, and Efficacy of RNA Vaccine Candidates Against COVID-19 in Healthy Adults",C4591001 Clinical Protocol,"MDV.C4591001-Pfizer,-Inc.ADaM-IG.1.1","Study C4591001 Pfizer, Inc Data Definitions",2.0.0,ADaM-IG,1.1,IG.ADSL,ADSL,ADSL,Subject-Level Analysis Dataset,,,,,IT.ADSL.EXCRIT6,EXCRIT6,Exclusion Criterion 6,text,145,EXCRIT6,,,False,,MT.ADSL.EXCRIT6,,,,,
FDA-CBER-2021-5683-1496005-1496178_27034_S1_M5_c4591001-safety-fa-eff-A-define.xml,"C4591001-Pfizer,-Inc.ADaM-IG.1.1","C4591001 Pfizer, Inc","A Phase 1/2/3 Study to Evaluate the Safety, Tolerability, Immunogenicity, and Efficacy of RNA Vaccine Candidates Against COVID-19 in Healthy Adults",C4591001 Clinical Protocol,"MDV.C4591001-Pfizer,-Inc.ADaM-IG.1.1","Study C4591001 Pfizer, Inc Data Definitions",2.0.0,ADaM-IG,1.1,IG.ADSL,ADSL,ADSL,Subject-Level Analysis Dataset,,,,,IT.ADSL.DS30KFL,DS30KFL,Phase 3 30k Subjects Flag,text,1,DS30KFL,,,True,,MT.ADSL.DS30KFL,,CL.NY,NY,text,"N: No;
Y: Yes"
FDA-CBER-2021-5683-1496005-1496178_27034_S1_M5_c4591001-safety-fa-eff-A-define.xml,"C4591001-Pfizer,-Inc.ADaM-IG.1.1","C4591001 Pfizer, Inc","A Phase 1/2/3 Study to Evaluate the Safety, Tolerability, Immunogenicity, and Efficacy of RNA Vaccine Candidates Against COVID-19 in Healthy Adults",C4591001 Clinical Protocol,"MDV.C4591001-Pfizer,-Inc.ADaM-IG.1.1","Study C4591001 Pfizer, Inc Data Definitions",2.0.0,ADaM-IG,1.1,IG.ADSL,ADSL,ADSL,Subject-Level Analysis Dataset,,,,,IT.ADSL.NIGV1FL,NIGV1FL,N-binding Antibody Neg at Visit 1 Flag,text,1,NIGV1FL,,,False,,MT.ADSL.NIGV1FL,,CL.NY,NY,text,"N: No;
Y: Yes"
FDA-CBER-2021-5683-1496005-1496178_27034_S1_M5_c4591001-safety-fa-eff-A-define.xml,"C4591001-Pfizer,-Inc.ADaM-IG.1.1","C4591001 Pfizer, Inc","A Phase 1/2/3 Study to Evaluate the Safety, Tolerability, Immunogenicity, and Efficacy of RNA Vaccine Candidates Against COVID-19 in Healthy Adults",C4591001 Clinical Protocol,"MDV.C4591001-Pfizer,-Inc.ADaM-IG.1.1","Study C4591001 Pfizer, Inc Data Definitions",2.0.0,ADaM-IG,1.1,IG.ADSL,ADSL,ADSL,Subject-Level Analysis Dataset,,,,,IT.ADSL.NAATNFL,NAATNFL,NAAT Negative at Visit 1 Flag,text,1,NAATNFL,,,False,,MT.ADSL.NAATNFL,,CL.NY,NY,text,"N: No;
Y: Yes"
FDA-CBER-2021-5683-1496005-1496178_27034_S1_M5_c4591001-safety-fa-eff-A-define.xml,"C4591001-Pfizer,-Inc.ADaM-IG.1.1","C4591001 Pfizer, Inc","A Phase 1/2/3 Study to Evaluate the Safety, Tolerability, Immunogenicity, and Efficacy of RNA Vaccine Candidates Against COVID-19 in Healthy Adults",C4591001 Clinical Protocol,"MDV.C4591001-Pfizer,-Inc.ADaM-IG.1.1","Study C4591001 Pfizer, Inc Data Definitions",2.0.0,ADaM-IG,1.1,IG.ADSL,ADSL,ADSL,Subject-Level Analysis Dataset,,,,,IT.ADSL.COVBLST,COVBLST,Baseline SARS-CoV-2 Status,text,3,COVBLST,,,False,,MT.ADSL.COVBLST,,,,,
FDA-CBER-2021-5683-1496005-1496178_27034_S1_M5_c4591001-safety-fa-eff-A-define.xml,"C4591001-Pfizer,-Inc.ADaM-IG.1.1","C4591001 Pfizer, Inc","A Phase 1/2/3 Study to Evaluate the Safety, Tolerability, Immunogenicity, and Efficacy of RNA Vaccine Candidates Against COVID-19 in Healthy Adults",C4591001 Clinical Protocol,"MDV.C4591001-Pfizer,-Inc.ADaM-IG.1.1","Study C4591001 Pfizer, Inc Data Definitions",2.0.0,ADaM-IG,1.1,IG.ADSL,ADSL,ADSL,Subject-Level Analysis Dataset,,,,,IT.ADSL.BMICAT,BMICAT,Baseline BMI Category,text,13,BMICAT,,,True,,MT.ADSL.BMICAT,,,,,
FDA-CBER-2021-5683-1496005-1496178_27034_S1_M5_c4591001-safety-fa-eff-A-define.xml,"C4591001-Pfizer,-Inc.ADaM-IG.1.1","C4591001 Pfizer, Inc","A Phase 1/2/3 Study to Evaluate the Safety, Tolerability, Immunogenicity, and Efficacy of RNA Vaccine Candidates Against COVID-19 in Healthy Adults",C4591001 Clinical Protocol,"MDV.C4591001-Pfizer,-Inc.ADaM-IG.1.1","Study C4591001 Pfizer, Inc Data Definitions",2.0.0,ADaM-IG,1.1,IG.ADSL,ADSL,ADSL,Subject-Level Analysis Dataset,,,,,IT.ADSL.BMICATN,BMICATN,Baseline BMI Category (N),integer,8,BMICATN,,,True,,MT.ADSL.BMICATN,,,,,
FDA-CBER-2021-5683-1496005-1496178_27034_S1_M5_c4591001-safety-fa-eff-A-define.xml,"C4591001-Pfizer,-Inc.ADaM-IG.1.1","C4591001 Pfizer, Inc","A Phase 1/2/3 Study to Evaluate the Safety, Tolerability, Immunogenicity, and Efficacy of RNA Vaccine Candidates Against COVID-19 in Healthy Adults",C4591001 Clinical Protocol,"MDV.C4591001-Pfizer,-Inc.ADaM-IG.1.1","Study C4591001 Pfizer, Inc Data Definitions",2.0.0,ADaM-IG,1.1,IG.ADSL,ADSL,ADSL,Subject-Level Analysis Dataset,,,,,IT.ADSL.FU2MPD2,FU2MPD2,2M Post Dose 2 Follow-up Time in Days,integer,8,FU2MPD2,,,False,,MT.ADSL.FU2MPD2,,,,,
FDA-CBER-2021-5683-1496005-1496178_27034_S1_M5_c4591001-safety-fa-eff-A-define.xml,"C4591001-Pfizer,-Inc.ADaM-IG.1.1","C4591001 Pfizer, Inc","A Phase 1/2/3 Study to Evaluate the Safety, Tolerability, Immunogenicity, and Efficacy of RNA Vaccine Candidates Against COVID-19 in Healthy Adults",C4591001 Clinical Protocol,"MDV.C4591001-Pfizer,-Inc.ADaM-IG.1.1","Study C4591001 Pfizer, Inc Data Definitions",2.0.0,ADaM-IG,1.1,IG.ADSL,ADSL,ADSL,Subject-Level Analysis Dataset,,,,,IT.ADSL.F2MP2CAT,F2MP2CAT,2M Post Dose 2 Follow-up Time Category,text,11,F2MP2CAT,,,False,,MT.ADSL.F2MP2CAT,,,,,
FDA-CBER-2021-5683-1496005-1496178_27034_S1_M5_c4591001-safety-fa-eff-A-define.xml,"C4591001-Pfizer,-Inc.ADaM-IG.1.1","C4591001 Pfizer, Inc","A Phase 1/2/3 Study to Evaluate the Safety, Tolerability, Immunogenicity, and Efficacy of RNA Vaccine Candidates Against COVID-19 in Healthy Adults",C4591001 Clinical Protocol,"MDV.C4591001-Pfizer,-Inc.ADaM-IG.1.1","Study C4591001 Pfizer, Inc Data Definitions",2.0.0,ADaM-IG,1.1,IG.ADSL,ADSL,ADSL,Subject-Level Analysis Dataset,,,,,IT.ADSL.F2MP2CAN,F2MP2CAN,2M Post Dose 2 Follow-up Time Cat (N),integer,8,F2MP2CAN,,,False,,MT.ADSL.F2MP2CAN,,,,,
FDA-CBER-2021-5683-1496005-1496178_27034_S1_M5_c4591001-safety-fa-eff-A-define.xml,"C4591001-Pfizer,-Inc.ADaM-IG.1.1","C4591001 Pfizer, Inc","A Phase 1/2/3 Study to Evaluate the Safety, Tolerability, Immunogenicity, and Efficacy of RNA Vaccine Candidates Against COVID-19 in Healthy Adults",C4591001 Clinical Protocol,"MDV.C4591001-Pfizer,-Inc.ADaM-IG.1.1","Study C4591001 Pfizer, Inc Data Definitions",2.0.0,ADaM-IG,1.1,IG.ADSL,ADSL,ADSL,Subject-Level Analysis Dataset,,,,,IT.ADSL.COMBODFL,COMBODFL,Flag for Comorbodities,text,1,COMBODFL,,,True,,MT.ADSL.COMBODFL,,CL.NY,NY,text,"N: No;
Y: Yes"
FDA-CBER-2021-5683-1496005-1496178_27034_S1_M5_c4591001-safety-fa-eff-A-define.xml,"C4591001-Pfizer,-Inc.ADaM-IG.1.1","C4591001 Pfizer, Inc","A Phase 1/2/3 Study to Evaluate the Safety, Tolerability, Immunogenicity, and Efficacy of RNA Vaccine Candidates Against COVID-19 in Healthy Adults",C4591001 Clinical Protocol,"MDV.C4591001-Pfizer,-Inc.ADaM-IG.1.1","Study C4591001 Pfizer, Inc Data Definitions",2.0.0,ADaM-IG,1.1,IG.ADSL,ADSL,ADSL,Subject-Level Analysis Dataset,,,,,IT.ADSL.PC1MD2FL,PC1MD2FL,Positive SARS-CoV-2 Prior to 1M PD2,text,1,PC1MD2FL,,,False,,MT.ADSL.PC1MD2FL,,,,,
FDA-CBER-2021-5683-1496005-1496178_27034_S1_M5_c4591001-safety-fa-eff-A-define.xml,"C4591001-Pfizer,-Inc.ADaM-IG.1.1","C4591001 Pfizer, Inc","A Phase 1/2/3 Study to Evaluate the Safety, Tolerability, Immunogenicity, and Efficacy of RNA Vaccine Candidates Against COVID-19 in Healthy Adults",C4591001 Clinical Protocol,"MDV.C4591001-Pfizer,-Inc.ADaM-IG.1.1","Study C4591001 Pfizer, Inc Data Definitions",2.0.0,ADaM-IG,1.1,IG.ADSL,ADSL,ADSL,Subject-Level Analysis Dataset,,,,,IT.ADSL.HIVFL,HIVFL,HIV Positive Subjects Flag,text,1,HIVFL,,,True,,MT.ADSL.HIVFL,,,,,
FDA-CBER-2021-5683-1496005-1496178_27034_S1_M5_c4591001-safety-fa-eff-A-define.xml,"C4591001-Pfizer,-Inc.ADaM-IG.1.1","C4591001 Pfizer, Inc","A Phase 1/2/3 Study to Evaluate the Safety, Tolerability, Immunogenicity, and Efficacy of RNA Vaccine Candidates Against COVID-19 in Healthy Adults",C4591001 Clinical Protocol,"MDV.C4591001-Pfizer,-Inc.ADaM-IG.1.1","Study C4591001 Pfizer, Inc Data Definitions",2.0.0,ADaM-IG,1.1,IG.ADC19EF,ADC19EF,ADC19EF,Covid-19 Efficacy Analysis Dataset,,,,,IT.ADC19EF.STUDYID,STUDYID,Study Identifier,text,8,STUDYID,,,True,1,,,,,,
FDA-CBER-2021-5683-1496005-1496178_27034_S1_M5_c4591001-safety-fa-eff-A-define.xml,"C4591001-Pfizer,-Inc.ADaM-IG.1.1","C4591001 Pfizer, Inc","A Phase 1/2/3 Study to Evaluate the Safety, Tolerability, Immunogenicity, and Efficacy of RNA Vaccine Candidates Against COVID-19 in Healthy Adults",C4591001 Clinical Protocol,"MDV.C4591001-Pfizer,-Inc.ADaM-IG.1.1","Study C4591001 Pfizer, Inc Data Definitions",2.0.0,ADaM-IG,1.1,IG.ADC19EF,ADC19EF,ADC19EF,Covid-19 Efficacy Analysis Dataset,,,,,IT.ADC19EF.USUBJID,USUBJID,Unique Subject Identifier,text,22,USUBJID,,,True,2,,,,,,
FDA-CBER-2021-5683-1496005-1496178_27034_S1_M5_c4591001-safety-fa-eff-A-define.xml,"C4591001-Pfizer,-Inc.ADaM-IG.1.1","C4591001 Pfizer, Inc","A Phase 1/2/3 Study to Evaluate the Safety, Tolerability, Immunogenicity, and Efficacy of RNA Vaccine Candidates Against COVID-19 in Healthy Adults",C4591001 Clinical Protocol,"MDV.C4591001-Pfizer,-Inc.ADaM-IG.1.1","Study C4591001 Pfizer, Inc Data Definitions",2.0.0,ADaM-IG,1.1,IG.ADC19EF,ADC19EF,ADC19EF,Covid-19 Efficacy Analysis Dataset,,,,,IT.ADC19EF.SITEID,SITEID,Study Site Identifier,text,4,SITEID,,,True,,,,,,,
FDA-CBER-2021-5683-1496005-1496178_27034_S1_M5_c4591001-safety-fa-eff-A-define.xml,"C4591001-Pfizer,-Inc.ADaM-IG.1.1","C4591001 Pfizer, Inc","A Phase 1/2/3 Study to Evaluate the Safety, Tolerability, Immunogenicity, and Efficacy of RNA Vaccine Candidates Against COVID-19 in Healthy Adults",C4591001 Clinical Protocol,"MDV.C4591001-Pfizer,-Inc.ADaM-IG.1.1","Study C4591001 Pfizer, Inc Data Definitions",2.0.0,ADaM-IG,1.1,IG.ADC19EF,ADC19EF,ADC19EF,Covid-19 Efficacy Analysis Dataset,,,,,IT.ADC19EF.SUBJID,SUBJID,Subject Identifier for the Study,text,8,SUBJID,,,True,,,,,,,
FDA-CBER-2021-5683-1496005-1496178_27034_S1_M5_c4591001-safety-fa-eff-A-define.xml,"C4591001-Pfizer,-Inc.ADaM-IG.1.1","C4591001 Pfizer, Inc","A Phase 1/2/3 Study to Evaluate the Safety, Tolerability, Immunogenicity, and Efficacy of RNA Vaccine Candidates Against COVID-19 in Healthy Adults",C4591001 Clinical Protocol,"MDV.C4591001-Pfizer,-Inc.ADaM-IG.1.1","Study C4591001 Pfizer, Inc Data Definitions",2.0.0,ADaM-IG,1.1,IG.ADC19EF,ADC19EF,ADC19EF,Covid-19 Efficacy Analysis Dataset,,,,,IT.ADC19EF.BRTHDT,BRTHDT,Date of Birth,integer,8,BRTHDT,,,True,,,,,,,
FDA-CBER-2021-5683-1496005-1496178_27034_S1_M5_c4591001-safety-fa-eff-A-define.xml,"C4591001-Pfizer,-Inc.ADaM-IG.1.1","C4591001 Pfizer, Inc","A Phase 1/2/3 Study to Evaluate the Safety, Tolerability, Immunogenicity, and Efficacy of RNA Vaccine Candidates Against COVID-19 in Healthy Adults",C4591001 Clinical Protocol,"MDV.C4591001-Pfizer,-Inc.ADaM-IG.1.1","Study C4591001 Pfizer, Inc Data Definitions",2.0.0,ADaM-IG,1.1,IG.ADC19EF,ADC19EF,ADC19EF,Covid-19 Efficacy Analysis Dataset,,,,,IT.ADC19EF.AGEGR1N,AGEGR1N,Pooled Age Group 1 (N),integer,8,AGEGR1N,,,True,,,,,,,
FDA-CBER-2021-5683-1496005-1496178_27034_S1_M5_c4591001-safety-fa-eff-A-define.xml,"C4591001-Pfizer,-Inc.ADaM-IG.1.1","C4591001 Pfizer, Inc","A Phase 1/2/3 Study to Evaluate the Safety, Tolerability, Immunogenicity, and Efficacy of RNA Vaccine Candidates Against COVID-19 in Healthy Adults",C4591001 Clinical Protocol,"MDV.C4591001-Pfizer,-Inc.ADaM-IG.1.1","Study C4591001 Pfizer, Inc Data Definitions",2.0.0,ADaM-IG,1.1,IG.ADC19EF,ADC19EF,ADC19EF,Covid-19 Efficacy Analysis Dataset,,,,,IT.ADC19EF.AGEGR1,AGEGR1,Pooled Age Group 1,text,11,AGEGR1,,,True,,,,,,,
FDA-CBER-2021-5683-1496005-1496178_27034_S1_M5_c4591001-safety-fa-eff-A-define.xml,"C4591001-Pfizer,-Inc.ADaM-IG.1.1","C4591001 Pfizer, Inc","A Phase 1/2/3 Study to Evaluate the Safety, Tolerability, Immunogenicity, and Efficacy of RNA Vaccine Candidates Against COVID-19 in Healthy Adults",C4591001 Clinical Protocol,"MDV.C4591001-Pfizer,-Inc.ADaM-IG.1.1","Study C4591001 Pfizer, Inc Data Definitions",2.0.0,ADaM-IG,1.1,IG.ADC19EF,ADC19EF,ADC19EF,Covid-19 Efficacy Analysis Dataset,,,,,IT.ADC19EF.SEX,SEX,Sex,text,1,SEX,,,True,,,,CL.SEX,SEX,text,"F: Female;
M: Male"
FDA-CBER-2021-5683-1496005-1496178_27034_S1_M5_c4591001-safety-fa-eff-A-define.xml,"C4591001-Pfizer,-Inc.ADaM-IG.1.1","C4591001 Pfizer, Inc","A Phase 1/2/3 Study to Evaluate the Safety, Tolerability, Immunogenicity, and Efficacy of RNA Vaccine Candidates Against COVID-19 in Healthy Adults",C4591001 Clinical Protocol,"MDV.C4591001-Pfizer,-Inc.ADaM-IG.1.1","Study C4591001 Pfizer, Inc Data Definitions",2.0.0,ADaM-IG,1.1,IG.ADC19EF,ADC19EF,ADC19EF,Covid-19 Efficacy Analysis Dataset,,,,,IT.ADC19EF.RACE,RACE,Race,text,41,RACE,,,True,,,,CL.RACE,RACE,text,"ASIAN: Asian;
AMERICAN INDIAN OR ALASKA NATIVE: American indian or alaska native;
BLACK OR AFRICAN AMERICAN: Black or african american;
MULTIPLE: Multiple;
NATIVE HAWAIIAN OR OTHER PACIFIC ISLANDER: Native hawaiian or other pacific islander;
NOT REPORTED: Not reported;
WHITE: White"
FDA-CBER-2021-5683-1496005-1496178_27034_S1_M5_c4591001-safety-fa-eff-A-define.xml,"C4591001-Pfizer,-Inc.ADaM-IG.1.1","C4591001 Pfizer, Inc","A Phase 1/2/3 Study to Evaluate the Safety, Tolerability, Immunogenicity, and Efficacy of RNA Vaccine Candidates Against COVID-19 in Healthy Adults",C4591001 Clinical Protocol,"MDV.C4591001-Pfizer,-Inc.ADaM-IG.1.1","Study C4591001 Pfizer, Inc Data Definitions",2.0.0,ADaM-IG,1.1,IG.ADC19EF,ADC19EF,ADC19EF,Covid-19 Efficacy Analysis Dataset,,,,,IT.ADC19EF.ETHNIC,ETHNIC,Ethnicity,text,22,ETHNIC,,,True,,,,CL.ETHNIC,ETHNIC,text,"HISPANIC OR LATINO: Hispanic or Latino;
NOT HISPANIC OR LATINO: Not Hispanic or Latino;
NOT REPORTED: Not Reported"
FDA-CBER-2021-5683-1496005-1496178_27034_S1_M5_c4591001-safety-fa-eff-A-define.xml,"C4591001-Pfizer,-Inc.ADaM-IG.1.1","C4591001 Pfizer, Inc","A Phase 1/2/3 Study to Evaluate the Safety, Tolerability, Immunogenicity, and Efficacy of RNA Vaccine Candidates Against COVID-19 in Healthy Adults",C4591001 Clinical Protocol,"MDV.C4591001-Pfizer,-Inc.ADaM-IG.1.1","Study C4591001 Pfizer, Inc Data Definitions",2.0.0,ADaM-IG,1.1,IG.ADC19EF,ADC19EF,ADC19EF,Covid-19 Efficacy Analysis Dataset,,,,,IT.ADC19EF.ARMCD,ARMCD,Planned Arm Code,text,9,ARMCD,,,True,,,,,,,
FDA-CBER-2021-5683-1496005-1496178_27034_S1_M5_c4591001-safety-fa-eff-A-define.xml,"C4591001-Pfizer,-Inc.ADaM-IG.1.1","C4591001 Pfizer, Inc","A Phase 1/2/3 Study to Evaluate the Safety, Tolerability, Immunogenicity, and Efficacy of RNA Vaccine Candidates Against COVID-19 in Healthy Adults",C4591001 Clinical Protocol,"MDV.C4591001-Pfizer,-Inc.ADaM-IG.1.1","Study C4591001 Pfizer, Inc Data Definitions",2.0.0,ADaM-IG,1.1,IG.ADC19EF,ADC19EF,ADC19EF,Covid-19 Efficacy Analysis Dataset,,,,,IT.ADC19EF.ARM,ARM,Description of Planned Arm,text,27,ARM,,,True,,,,,,,
FDA-CBER-2021-5683-1496005-1496178_27034_S1_M5_c4591001-safety-fa-eff-A-define.xml,"C4591001-Pfizer,-Inc.ADaM-IG.1.1","C4591001 Pfizer, Inc","A Phase 1/2/3 Study to Evaluate the Safety, Tolerability, Immunogenicity, and Efficacy of RNA Vaccine Candidates Against COVID-19 in Healthy Adults",C4591001 Clinical Protocol,"MDV.C4591001-Pfizer,-Inc.ADaM-IG.1.1","Study C4591001 Pfizer, Inc Data Definitions",2.0.0,ADaM-IG,1.1,IG.ADC19EF,ADC19EF,ADC19EF,Covid-19 Efficacy Analysis Dataset,,,,,IT.ADC19EF.ACTARMCD,ACTARMCD,Actual Arm Code,text,9,ACTARMCD,,,True,,,,,,,
FDA-CBER-2021-5683-1496005-1496178_27034_S1_M5_c4591001-safety-fa-eff-A-define.xml,"C4591001-Pfizer,-Inc.ADaM-IG.1.1","C4591001 Pfizer, Inc","A Phase 1/2/3 Study to Evaluate the Safety, Tolerability, Immunogenicity, and Efficacy of RNA Vaccine Candidates Against COVID-19 in Healthy Adults",C4591001 Clinical Protocol,"MDV.C4591001-Pfizer,-Inc.ADaM-IG.1.1","Study C4591001 Pfizer, Inc Data Definitions",2.0.0,ADaM-IG,1.1,IG.ADC19EF,ADC19EF,ADC19EF,Covid-19 Efficacy Analysis Dataset,,,,,IT.ADC19EF.ACTARM,ACTARM,Description of Actual Arm,text,27,ACTARM,,,True,,,,,,,
FDA-CBER-2021-5683-1496005-1496178_27034_S1_M5_c4591001-safety-fa-eff-A-define.xml,"C4591001-Pfizer,-Inc.ADaM-IG.1.1","C4591001 Pfizer, Inc","A Phase 1/2/3 Study to Evaluate the Safety, Tolerability, Immunogenicity, and Efficacy of RNA Vaccine Candidates Against COVID-19 in Healthy Adults",C4591001 Clinical Protocol,"MDV.C4591001-Pfizer,-Inc.ADaM-IG.1.1","Study C4591001 Pfizer, Inc Data Definitions",2.0.0,ADaM-IG,1.1,IG.ADC19EF,ADC19EF,ADC19EF,Covid-19 Efficacy Analysis Dataset,,,,,IT.ADC19EF.PARAMN,PARAMN,Parameter (N),integer,8,PARAMN,,,True,,,,CL.ADC19EF.PARAMN,ADC19EF.PARAMN,integer,"40: SEVERE ACUTE RESP SYNDROME CORONAVIRUS 2;
41: CEPHEID RT-PCR ASSAY FOR SARS-COV-2;
90: N-BINDING ANTIBODY;
91: SUBJECT IN ICU DUE TO POTENTIAL COVID-19 ILLNESS;
101: PRESENCE OF PROTOCOL DEFINED SYMPTOMS AFTER DOSE;
102: PRESENCE OF CDC DEFINED SYMPTOMS AFTER DOSE;
103: SEVERE COVID-19 SYMPTOMS - VITAL SIGNS;
104: SEVERE COVID-19 SYMPTOMS - RESPIRATORY FAILURE;
105: SEVERE COVID-19 SYMPTOMS - USE OF VASOPRESSORS;
106: SEVERE COVID-19 SYMPTOMS - SIGNIFICANT ACUTE RENAL, HEPATIC, OR NEUROLOGIC DYSFUNCTION;
107: PRESENCE OF PROTOCOL DEFINED SEVERE COVID-19 SYMPTOMS AFTER DOSE;
110: COVID-19 NAAT RESULT AFTER DOSE;
120: PROTOCOL DEFINED COVID-19 ILLNESS ONSET;
125: CDC DEFINED COVID-19 ILLNESS ONSET;
130: SEVERE COVID-19 ILLNESS ONSET;
141: SUBJECT'S SURVEILLANCE TIME AFTER DOSE 1 FOR PROTOCOL DEFINED SYMPTOMS;
142: SUBJECT'S SURVEILLANCE TIME 7 DAYS AFTER DOSE 1 FOR PROTOCOL DEFINED SYMPTOMS;
143: SUBJECT'S SURVEILLANCE TIME AFTER DOSE 2 FOR PROTOCOL DEFINED SYMPTOMS;
144: SUBJECT'S SURVEILLANCE TIME 7 DAYS AFTER DOSE 2 FOR PROTOCOL DEFINED SYMPTOMS;
145: SUBJECT'S SURVEILLANCE TIME 14 DAYS AFTER DOSE 2 FOR PROTOCOL DEFINED SYMPTOMS;
151: SUBJECT'S SURVEILLANCE TIME AFTER DOSE 1 FOR CDC DEFINED SYMPTOMS;
152: SUBJECT'S SURVEILLANCE TIME 7 DAYS AFTER DOSE 1 FOR CDC DEFINED SYMPTOMS;
153: SUBJECT'S SURVEILLANCE TIME AFTER DOSE 2 FOR CDC DEFINED SYMPTOMS;
154: SUBJECT'S SURVEILLANCE TIME 7 DAYS AFTER DOSE 2 FOR CDC DEFINED SYMPTOMS;
155: SUBJECT'S SURVEILLANCE TIME 14 DAYS AFTER DOSE 2 FOR CDC DEFINED SYMPTOMS;
161: SUBJECT'S SURVEILLANCE TIME AFTER DOSE 1 FOR SEVERE COVID19 SYMPTOMS;
162: SUBJECT'S SURVEILLANCE TIME 7 DAYS AFTER DOSE 1 FOR SEVERE COVID19 SYMPTOMS;
163: SUBJECT'S SURVEILLANCE TIME AFTER DOSE 2 FOR SEVERE COVID19 SYMPTOMS;
164: SUBJECT'S SURVEILLANCE TIME 7 DAYS AFTER DOSE 2 FOR SEVERE COVID19 SYMPTOMS;
165: SUBJECT'S SURVEILLANCE TIME 14 DAYS AFTER DOSE 2 FOR SEVERE COVID19 SYMPTOMS;
171: SUBJECT'S SURVEILLANCE TIME AFTER DOSE 1 FOR PROTOCOL DEFINED SYMPTOMS - ALL AVAILABLE;
172: SUBJECT'S SURVEILLANCE TIME 7 DAYS AFTER DOSE 1 FOR PROTOCOL DEFINED SYMPTOMS - ALL AVAILABLE;
173: SUBJECT'S SURVEILLANCE TIME AFTER DOSE 2 FOR PROTOCOL DEFINED SYMPTOMS - ALL AVAILABLE;
174: SUBJECT'S SURVEILLANCE TIME 7 DAYS AFTER DOSE 2 FOR PROTOCOL DEFINED SYMPTOMS - ALL AVAILABLE;
175: SUBJECT'S SURVEILLANCE TIME 14 DAYS AFTER DOSE 2 FOR PROTOCOL DEFINED SYMPTOMS - ALL AVAILABLE"
FDA-CBER-2021-5683-1496005-1496178_27034_S1_M5_c4591001-safety-fa-eff-A-define.xml,"C4591001-Pfizer,-Inc.ADaM-IG.1.1","C4591001 Pfizer, Inc","A Phase 1/2/3 Study to Evaluate the Safety, Tolerability, Immunogenicity, and Efficacy of RNA Vaccine Candidates Against COVID-19 in Healthy Adults",C4591001 Clinical Protocol,"MDV.C4591001-Pfizer,-Inc.ADaM-IG.1.1","Study C4591001 Pfizer, Inc Data Definitions",2.0.0,ADaM-IG,1.1,IG.ADC19EF,ADC19EF,ADC19EF,Covid-19 Efficacy Analysis Dataset,,,,,IT.ADC19EF.PARAMCD,PARAMCD,Parameter Code,text,8,PARAMCD,,,True,3,,,CL.ADC19EF.PARAMCD,ADC19EF.PARAMCD,text,"C19NIG: N-BINDING ANTIBODY;
C19ONST: PROTOCOL DEFINED COVID-19 ILLNESS ONSET;
CDCONST: CDC DEFINED COVID-19 ILLNESS ONSET;
HCUICU: SUBJECT IN ICU DUE TO POTENTIAL COVID-19 ILLNESS;
NAATRAD: COVID-19 NAAT RESULT AFTER DOSE;
PRCDCSAD: PRESENCE OF CDC DEFINED SYMPTOMS AFTER DOSE;
PRPDSAD: PRESENCE OF PROTOCOL DEFINED SYMPTOMS AFTER DOSE;
PRSVCSAD: PRESENCE OF PROTOCOL DEFINED SEVERE COVID-19 SYMPTOMS AFTER DOSE;
RTCOV2NS: CEPHEID RT-PCR ASSAY FOR SARS-COV-2;
SARSCOV2: SEVERE ACUTE RESP SYNDROME CORONAVIRUS 2;
SEVCONST: SEVERE COVID-19 ILLNESS ONSET;
SEVCRF: SEVERE COVID-19 SYMPTOMS - RESPIRATORY FAILURE;
SEVCRHN: SEVERE COVID-19 SYMPTOMS - SIGNIFICANT ACUTE RENAL, HEPATIC, OR NEUROLOGIC DYSFUNCTION;
SEVCVS: SEVERE COVID-19 SYMPTOMS - VITAL SIGNS;
SEVCVSPR: SEVERE COVID-19 SYMPTOMS - USE OF VASOPRESSORS;
ST17CD: SUBJECT'S SURVEILLANCE TIME 7 DAYS AFTER DOSE 1 FOR CDC DEFINED SYMPTOMS;
ST17PD: SUBJECT'S SURVEILLANCE TIME 7 DAYS AFTER DOSE 1 FOR PROTOCOL DEFINED SYMPTOMS;
ST17PDA: SUBJECT'S SURVEILLANCE TIME 7 DAYS AFTER DOSE 1 FOR PROTOCOL DEFINED SYMPTOMS - ALL AVAILABLE;
ST17SE: SUBJECT'S SURVEILLANCE TIME 7 DAYS AFTER DOSE 1 FOR SEVERE COVID19 SYMPTOMS;
ST1CD: SUBJECT'S SURVEILLANCE TIME AFTER DOSE 1 FOR CDC DEFINED SYMPTOMS;
ST1PD: SUBJECT'S SURVEILLANCE TIME AFTER DOSE 1 FOR PROTOCOL DEFINED SYMPTOMS;
ST1PDA: SUBJECT'S SURVEILLANCE TIME AFTER DOSE 1 FOR PROTOCOL DEFINED SYMPTOMS - ALL AVAILABLE;
ST1SE: SUBJECT'S SURVEILLANCE TIME AFTER DOSE 1 FOR SEVERE COVID19 SYMPTOMS;
ST214CD: SUBJECT'S SURVEILLANCE TIME 14 DAYS AFTER DOSE 2 FOR CDC DEFINED SYMPTOMS;
ST214PD: SUBJECT'S SURVEILLANCE TIME 14 DAYS AFTER DOSE 2 FOR PROTOCOL DEFINED SYMPTOMS;
ST214PDA: SUBJECT'S SURVEILLANCE TIME 14 DAYS AFTER DOSE 2 FOR PROTOCOL DEFINED SYMPTOMS - ALL AVAILABLE;
ST214SE: SUBJECT'S SURVEILLANCE TIME 14 DAYS AFTER DOSE 2 FOR SEVERE COVID19 SYMPTOMS;
ST27CD: SUBJECT'S SURVEILLANCE TIME 7 DAYS AFTER DOSE 2 FOR CDC DEFINED SYMPTOMS;
ST27PD: SUBJECT'S SURVEILLANCE TIME 7 DAYS AFTER DOSE 2 FOR PROTOCOL DEFINED SYMPTOMS;
ST27PDA: SUBJECT'S SURVEILLANCE TIME 7 DAYS AFTER DOSE 2 FOR PROTOCOL DEFINED SYMPTOMS - ALL AVAILABLE;
ST27SE: SUBJECT'S SURVEILLANCE TIME 7 DAYS AFTER DOSE 2 FOR SEVERE COVID19 SYMPTOMS;
ST2CD: SUBJECT'S SURVEILLANCE TIME AFTER DOSE 2 FOR CDC DEFINED SYMPTOMS;
ST2PD: SUBJECT'S SURVEILLANCE TIME AFTER DOSE 2 FOR PROTOCOL DEFINED SYMPTOMS;
ST2PDA: SUBJECT'S SURVEILLANCE TIME AFTER DOSE 2 FOR PROTOCOL DEFINED SYMPTOMS - ALL AVAILABLE;
ST2SE: SUBJECT'S SURVEILLANCE TIME AFTER DOSE 2 FOR SEVERE COVID19 SYMPTOMS"
FDA-CBER-2021-5683-1496005-1496178_27034_S1_M5_c4591001-safety-fa-eff-A-define.xml,"C4591001-Pfizer,-Inc.ADaM-IG.1.1","C4591001 Pfizer, Inc","A Phase 1/2/3 Study to Evaluate the Safety, Tolerability, Immunogenicity, and Efficacy of RNA Vaccine Candidates Against COVID-19 in Healthy Adults",C4591001 Clinical Protocol,"MDV.C4591001-Pfizer,-Inc.ADaM-IG.1.1","Study C4591001 Pfizer, Inc Data Definitions",2.0.0,ADaM-IG,1.1,IG.ADC19EF,ADC19EF,ADC19EF,Covid-19 Efficacy Analysis Dataset,,,,,IT.ADC19EF.PARAM,PARAM,Parameter,text,94,PARAM,,,True,,,,CL.ADC19EF.PARAM,ADC19EF.PARAM,text,
FDA-CBER-2021-5683-1496005-1496178_27034_S1_M5_c4591001-safety-fa-eff-A-define.xml,"C4591001-Pfizer,-Inc.ADaM-IG.1.1","C4591001 Pfizer, Inc","A Phase 1/2/3 Study to Evaluate the Safety, Tolerability, Immunogenicity, and Efficacy of RNA Vaccine Candidates Against COVID-19 in Healthy Adults",C4591001 Clinical Protocol,"MDV.C4591001-Pfizer,-Inc.ADaM-IG.1.1","Study C4591001 Pfizer, Inc Data Definitions",2.0.0,ADaM-IG,1.1,IG.ADC19EF,ADC19EF,ADC19EF,Covid-19 Efficacy Analysis Dataset,,,,,IT.ADC19EF.PARCAT1,PARCAT1,Parameter Category 1,text,31,PARCAT1,,,True,,MT.ADC19EF.PARCAT1,,,,,
FDA-CBER-2021-5683-1496005-1496178_27034_S1_M5_c4591001-safety-fa-eff-A-define.xml,"C4591001-Pfizer,-Inc.ADaM-IG.1.1","C4591001 Pfizer, Inc","A Phase 1/2/3 Study to Evaluate the Safety, Tolerability, Immunogenicity, and Efficacy of RNA Vaccine Candidates Against COVID-19 in Healthy Adults",C4591001 Clinical Protocol,"MDV.C4591001-Pfizer,-Inc.ADaM-IG.1.1","Study C4591001 Pfizer, Inc Data Definitions",2.0.0,ADaM-IG,1.1,IG.ADC19EF,ADC19EF,ADC19EF,Covid-19 Efficacy Analysis Dataset,,,,,IT.ADC19EF.AVAL,AVAL,Analysis Value,integer,8,AVAL,,,False,,,,,,,
FDA-CBER-2021-5683-1496005-1496178_27034_S1_M5_c4591001-safety-fa-eff-A-define.xml,"C4591001-Pfizer,-Inc.ADaM-IG.1.1","C4591001 Pfizer, Inc","A Phase 1/2/3 Study to Evaluate the Safety, Tolerability, Immunogenicity, and Efficacy of RNA Vaccine Candidates Against COVID-19 in Healthy Adults",C4591001 Clinical Protocol,"MDV.C4591001-Pfizer,-Inc.ADaM-IG.1.1","Study C4591001 Pfizer, Inc Data Definitions",2.0.0,ADaM-IG,1.1,IG.ADC19EF,ADC19EF,ADC19EF,Covid-19 Efficacy Analysis Dataset,,,,,IT.ADC19EF.AVALC,AVALC,Analysis Value (C),text,3,AVALC,,,False,,,,,,,
FDA-CBER-2021-5683-1496005-1496178_27034_S1_M5_c4591001-safety-fa-eff-A-define.xml,"C4591001-Pfizer,-Inc.ADaM-IG.1.1","C4591001 Pfizer, Inc","A Phase 1/2/3 Study to Evaluate the Safety, Tolerability, Immunogenicity, and Efficacy of RNA Vaccine Candidates Against COVID-19 in Healthy Adults",C4591001 Clinical Protocol,"MDV.C4591001-Pfizer,-Inc.ADaM-IG.1.1","Study C4591001 Pfizer, Inc Data Definitions",2.0.0,ADaM-IG,1.1,IG.ADC19EF,ADC19EF,ADC19EF,Covid-19 Efficacy Analysis Dataset,,,,,IT.ADC19EF.VISITNUM,VISITNUM,Visit Number,integer,8,VISITNUM,,,False,,,,CL.ADC19EF.VISITNUM,ADC19EF.VISITNUM,integer,"1: COVID_A;
2: COVID_B;
3: COVID_C;
4: COVID_D;
1001: COVID_AR1;
2001: COVID_BR1;
60765: V1_DAY1_VAX1_L;
60766: V2_VAX2_L"
FDA-CBER-2021-5683-1496005-1496178_27034_S1_M5_c4591001-safety-fa-eff-A-define.xml,"C4591001-Pfizer,-Inc.ADaM-IG.1.1","C4591001 Pfizer, Inc","A Phase 1/2/3 Study to Evaluate the Safety, Tolerability, Immunogenicity, and Efficacy of RNA Vaccine Candidates Against COVID-19 in Healthy Adults",C4591001 Clinical Protocol,"MDV.C4591001-Pfizer,-Inc.ADaM-IG.1.1","Study C4591001 Pfizer, Inc Data Definitions",2.0.0,ADaM-IG,1.1,IG.ADC19EF,ADC19EF,ADC19EF,Covid-19 Efficacy Analysis Dataset,,,,,IT.ADC19EF.VISIT,VISIT,Visit Name,text,14,VISIT,,,False,,,,CL.ADC19EF.VISIT,ADC19EF.VISIT,text,
FDA-CBER-2021-5683-1496005-1496178_27034_S1_M5_c4591001-safety-fa-eff-A-define.xml,"C4591001-Pfizer,-Inc.ADaM-IG.1.1","C4591001 Pfizer, Inc","A Phase 1/2/3 Study to Evaluate the Safety, Tolerability, Immunogenicity, and Efficacy of RNA Vaccine Candidates Against COVID-19 in Healthy Adults",C4591001 Clinical Protocol,"MDV.C4591001-Pfizer,-Inc.ADaM-IG.1.1","Study C4591001 Pfizer, Inc Data Definitions",2.0.0,ADaM-IG,1.1,IG.ADC19EF,ADC19EF,ADC19EF,Covid-19 Efficacy Analysis Dataset,,,,,IT.ADC19EF.AVISITN,AVISITN,Analysis Visit (N),integer,8,AVISITN,,,False,,,,CL.ADC19EF.AVISITN,ADC19EF.AVISITN,integer,"1: COVID_A;
2: COVID_B;
3: COVID_C;
4: COVID_D;
60765: V1_DAY1_VAX1_L;
60766: V2_VAX2_L"
FDA-CBER-2021-5683-1496005-1496178_27034_S1_M5_c4591001-safety-fa-eff-A-define.xml,"C4591001-Pfizer,-Inc.ADaM-IG.1.1","C4591001 Pfizer, Inc","A Phase 1/2/3 Study to Evaluate the Safety, Tolerability, Immunogenicity, and Efficacy of RNA Vaccine Candidates Against COVID-19 in Healthy Adults",C4591001 Clinical Protocol,"MDV.C4591001-Pfizer,-Inc.ADaM-IG.1.1","Study C4591001 Pfizer, Inc Data Definitions",2.0.0,ADaM-IG,1.1,IG.ADC19EF,ADC19EF,ADC19EF,Covid-19 Efficacy Analysis Dataset,,,,,IT.ADC19EF.AVISIT,AVISIT,Analysis Visit,text,14,AVISIT,,,False,,,,CL.ADC19EF.AVISIT,ADC19EF.AVISIT,text,
FDA-CBER-2021-5683-1496005-1496178_27034_S1_M5_c4591001-safety-fa-eff-A-define.xml,"C4591001-Pfizer,-Inc.ADaM-IG.1.1","C4591001 Pfizer, Inc","A Phase 1/2/3 Study to Evaluate the Safety, Tolerability, Immunogenicity, and Efficacy of RNA Vaccine Candidates Against COVID-19 in Healthy Adults",C4591001 Clinical Protocol,"MDV.C4591001-Pfizer,-Inc.ADaM-IG.1.1","Study C4591001 Pfizer, Inc Data Definitions",2.0.0,ADaM-IG,1.1,IG.ADC19EF,ADC19EF,ADC19EF,Covid-19 Efficacy Analysis Dataset,,,,,IT.ADC19EF.ADT,ADT,Analysis Date,integer,8,ADT,,,False,4,MT.ADC19EF.ADT,,,,,
FDA-CBER-2021-5683-1496005-1496178_27034_S1_M5_c4591001-safety-fa-eff-A-define.xml,"C4591001-Pfizer,-Inc.ADaM-IG.1.1","C4591001 Pfizer, Inc","A Phase 1/2/3 Study to Evaluate the Safety, Tolerability, Immunogenicity, and Efficacy of RNA Vaccine Candidates Against COVID-19 in Healthy Adults",C4591001 Clinical Protocol,"MDV.C4591001-Pfizer,-Inc.ADaM-IG.1.1","Study C4591001 Pfizer, Inc Data Definitions",2.0.0,ADaM-IG,1.1,IG.ADC19EF,ADC19EF,ADC19EF,Covid-19 Efficacy Analysis Dataset,,,,,IT.ADC19EF.ADY,ADY,Analysis Relative Day,integer,8,ADY,,,False,,MT.ADC19EF.ADY,,,,,
FDA-CBER-2021-5683-1496005-1496178_27034_S1_M5_c4591001-safety-fa-eff-A-define.xml,"C4591001-Pfizer,-Inc.ADaM-IG.1.1","C4591001 Pfizer, Inc","A Phase 1/2/3 Study to Evaluate the Safety, Tolerability, Immunogenicity, and Efficacy of RNA Vaccine Candidates Against COVID-19 in Healthy Adults",C4591001 Clinical Protocol,"MDV.C4591001-Pfizer,-Inc.ADaM-IG.1.1","Study C4591001 Pfizer, Inc Data Definitions",2.0.0,ADaM-IG,1.1,IG.ADC19EF,ADC19EF,ADC19EF,Covid-19 Efficacy Analysis Dataset,,,,,IT.ADC19EF.ASTDT,ASTDT,Analysis Start Date,integer,8,ASTDT,,,False,,MT.ADC19EF.ASTDT,,,,,
FDA-CBER-2021-5683-1496005-1496178_27034_S1_M5_c4591001-safety-fa-eff-A-define.xml,"C4591001-Pfizer,-Inc.ADaM-IG.1.1","C4591001 Pfizer, Inc","A Phase 1/2/3 Study to Evaluate the Safety, Tolerability, Immunogenicity, and Efficacy of RNA Vaccine Candidates Against COVID-19 in Healthy Adults",C4591001 Clinical Protocol,"MDV.C4591001-Pfizer,-Inc.ADaM-IG.1.1","Study C4591001 Pfizer, Inc Data Definitions",2.0.0,ADaM-IG,1.1,IG.ADC19EF,ADC19EF,ADC19EF,Covid-19 Efficacy Analysis Dataset,,,,,IT.ADC19EF.ASTDY,ASTDY,Analysis Start Relative Day,integer,8,ASTDY,,,False,,MT.ADC19EF.ASTDY,,,,,
FDA-CBER-2021-5683-1496005-1496178_27034_S1_M5_c4591001-safety-fa-eff-A-define.xml,"C4591001-Pfizer,-Inc.ADaM-IG.1.1","C4591001 Pfizer, Inc","A Phase 1/2/3 Study to Evaluate the Safety, Tolerability, Immunogenicity, and Efficacy of RNA Vaccine Candidates Against COVID-19 in Healthy Adults",C4591001 Clinical Protocol,"MDV.C4591001-Pfizer,-Inc.ADaM-IG.1.1","Study C4591001 Pfizer, Inc Data Definitions",2.0.0,ADaM-IG,1.1,IG.ADC19EF,ADC19EF,ADC19EF,Covid-19 Efficacy Analysis Dataset,,,,,IT.ADC19EF.AENDT,AENDT,Analysis End Date,integer,8,AENDT,,,False,,MT.ADC19EF.AENDT,,,,,
FDA-CBER-2021-5683-1496005-1496178_27034_S1_M5_c4591001-safety-fa-eff-A-define.xml,"C4591001-Pfizer,-Inc.ADaM-IG.1.1","C4591001 Pfizer, Inc","A Phase 1/2/3 Study to Evaluate the Safety, Tolerability, Immunogenicity, and Efficacy of RNA Vaccine Candidates Against COVID-19 in Healthy Adults",C4591001 Clinical Protocol,"MDV.C4591001-Pfizer,-Inc.ADaM-IG.1.1","Study C4591001 Pfizer, Inc Data Definitions",2.0.0,ADaM-IG,1.1,IG.ADC19EF,ADC19EF,ADC19EF,Covid-19 Efficacy Analysis Dataset,,,,,IT.ADC19EF.AENDY,AENDY,Analysis End Relative Day,integer,8,AENDY,,,False,,MT.ADC19EF.AENDY,,,,,
FDA-CBER-2021-5683-1496005-1496178_27034_S1_M5_c4591001-safety-fa-eff-A-define.xml,"C4591001-Pfizer,-Inc.ADaM-IG.1.1","C4591001 Pfizer, Inc","A Phase 1/2/3 Study to Evaluate the Safety, Tolerability, Immunogenicity, and Efficacy of RNA Vaccine Candidates Against COVID-19 in Healthy Adults",C4591001 Clinical Protocol,"MDV.C4591001-Pfizer,-Inc.ADaM-IG.1.1","Study C4591001 Pfizer, Inc Data Definitions",2.0.0,ADaM-IG,1.1,IG.ADC19EF,ADC19EF,ADC19EF,Covid-19 Efficacy Analysis Dataset,,,,,IT.ADC19EF.DCODT,DCODT,Data Cutoff Date,integer,8,DCODT,,,True,,,,,,,
FDA-CBER-2021-5683-1496005-1496178_27034_S1_M5_c4591001-safety-fa-eff-A-define.xml,"C4591001-Pfizer,-Inc.ADaM-IG.1.1","C4591001 Pfizer, Inc","A Phase 1/2/3 Study to Evaluate the Safety, Tolerability, Immunogenicity, and Efficacy of RNA Vaccine Candidates Against COVID-19 in Healthy Adults",C4591001 Clinical Protocol,"MDV.C4591001-Pfizer,-Inc.ADaM-IG.1.1","Study C4591001 Pfizer, Inc Data Definitions",2.0.0,ADaM-IG,1.1,IG.ADC19EF,ADC19EF,ADC19EF,Covid-19 Efficacy Analysis Dataset,,,,,IT.ADC19EF.RANDDT,RANDDT,Date of Randomization,integer,8,RANDDT,,,True,,,,,,,
FDA-CBER-2021-5683-1496005-1496178_27034_S1_M5_c4591001-safety-fa-eff-A-define.xml,"C4591001-Pfizer,-Inc.ADaM-IG.1.1","C4591001 Pfizer, Inc","A Phase 1/2/3 Study to Evaluate the Safety, Tolerability, Immunogenicity, and Efficacy of RNA Vaccine Candidates Against COVID-19 in Healthy Adults",C4591001 Clinical Protocol,"MDV.C4591001-Pfizer,-Inc.ADaM-IG.1.1","Study C4591001 Pfizer, Inc Data Definitions",2.0.0,ADaM-IG,1.1,IG.ADC19EF,ADC19EF,ADC19EF,Covid-19 Efficacy Analysis Dataset,,,,,IT.ADC19EF.TRTSDT,TRTSDT,Date of First Exposure to Treatment,integer,8,TRTSDT,,,False,,,,,,,
FDA-CBER-2021-5683-1496005-1496178_27034_S1_M5_c4591001-safety-fa-eff-A-define.xml,"C4591001-Pfizer,-Inc.ADaM-IG.1.1","C4591001 Pfizer, Inc","A Phase 1/2/3 Study to Evaluate the Safety, Tolerability, Immunogenicity, and Efficacy of RNA Vaccine Candidates Against COVID-19 in Healthy Adults",C4591001 Clinical Protocol,"MDV.C4591001-Pfizer,-Inc.ADaM-IG.1.1","Study C4591001 Pfizer, Inc Data Definitions",2.0.0,ADaM-IG,1.1,IG.ADC19EF,ADC19EF,ADC19EF,Covid-19 Efficacy Analysis Dataset,,,,,IT.ADC19EF.TRTEDT,TRTEDT,Date of Last Exposure to Treatment,integer,8,TRTEDT,,,False,,,,,,,
FDA-CBER-2021-5683-1496005-1496178_27034_S1_M5_c4591001-safety-fa-eff-A-define.xml,"C4591001-Pfizer,-Inc.ADaM-IG.1.1","C4591001 Pfizer, Inc","A Phase 1/2/3 Study to Evaluate the Safety, Tolerability, Immunogenicity, and Efficacy of RNA Vaccine Candidates Against COVID-19 in Healthy Adults",C4591001 Clinical Protocol,"MDV.C4591001-Pfizer,-Inc.ADaM-IG.1.1","Study C4591001 Pfizer, Inc Data Definitions",2.0.0,ADaM-IG,1.1,IG.ADC19EF,ADC19EF,ADC19EF,Covid-19 Efficacy Analysis Dataset,,,,,IT.ADC19EF.VAX101DT,VAX101DT,Vaccination Date 01,integer,8,VAX101DT,,,False,,,,,,,
FDA-CBER-2021-5683-1496005-1496178_27034_S1_M5_c4591001-safety-fa-eff-A-define.xml,"C4591001-Pfizer,-Inc.ADaM-IG.1.1","C4591001 Pfizer, Inc","A Phase 1/2/3 Study to Evaluate the Safety, Tolerability, Immunogenicity, and Efficacy of RNA Vaccine Candidates Against COVID-19 in Healthy Adults",C4591001 Clinical Protocol,"MDV.C4591001-Pfizer,-Inc.ADaM-IG.1.1","Study C4591001 Pfizer, Inc Data Definitions",2.0.0,ADaM-IG,1.1,IG.ADC19EF,ADC19EF,ADC19EF,Covid-19 Efficacy Analysis Dataset,,,,,IT.ADC19EF.VAX102DT,VAX102DT,Vaccination Date 02,integer,8,VAX102DT,,,False,,,,,,,
FDA-CBER-2021-5683-1496005-1496178_27034_S1_M5_c4591001-safety-fa-eff-A-define.xml,"C4591001-Pfizer,-Inc.ADaM-IG.1.1","C4591001 Pfizer, Inc","A Phase 1/2/3 Study to Evaluate the Safety, Tolerability, Immunogenicity, and Efficacy of RNA Vaccine Candidates Against COVID-19 in Healthy Adults",C4591001 Clinical Protocol,"MDV.C4591001-Pfizer,-Inc.ADaM-IG.1.1","Study C4591001 Pfizer, Inc Data Definitions",2.0.0,ADaM-IG,1.1,IG.ADC19EF,ADC19EF,ADC19EF,Covid-19 Efficacy Analysis Dataset,,,,,IT.ADC19EF.DVSTDT,DVSTDT,Start Date of Important PD,integer,8,DVSTDT,,,False,,,,,,,
FDA-CBER-2021-5683-1496005-1496178_27034_S1_M5_c4591001-safety-fa-eff-A-define.xml,"C4591001-Pfizer,-Inc.ADaM-IG.1.1","C4591001 Pfizer, Inc","A Phase 1/2/3 Study to Evaluate the Safety, Tolerability, Immunogenicity, and Efficacy of RNA Vaccine Candidates Against COVID-19 in Healthy Adults",C4591001 Clinical Protocol,"MDV.C4591001-Pfizer,-Inc.ADaM-IG.1.1","Study C4591001 Pfizer, Inc Data Definitions",2.0.0,ADaM-IG,1.1,IG.ADC19EF,ADC19EF,ADC19EF,Covid-19 Efficacy Analysis Dataset,,,,,IT.ADC19EF.DTHDT,DTHDT,Date of Death,integer,8,DTHDT,,,False,,,,,,,
FDA-CBER-2021-5683-1496005-1496178_27034_S1_M5_c4591001-safety-fa-eff-A-define.xml,"C4591001-Pfizer,-Inc.ADaM-IG.1.1","C4591001 Pfizer, Inc","A Phase 1/2/3 Study to Evaluate the Safety, Tolerability, Immunogenicity, and Efficacy of RNA Vaccine Candidates Against COVID-19 in Healthy Adults",C4591001 Clinical Protocol,"MDV.C4591001-Pfizer,-Inc.ADaM-IG.1.1","Study C4591001 Pfizer, Inc Data Definitions",2.0.0,ADaM-IG,1.1,IG.ADC19EF,ADC19EF,ADC19EF,Covid-19 Efficacy Analysis Dataset,,,,,IT.ADC19EF.EOTDCDT,EOTDCDT,End Of Treatment Discontinuation Date,integer,8,EOTDCDT,,,False,,,,,,,
FDA-CBER-2021-5683-1496005-1496178_27034_S1_M5_c4591001-safety-fa-eff-A-define.xml,"C4591001-Pfizer,-Inc.ADaM-IG.1.1","C4591001 Pfizer, Inc","A Phase 1/2/3 Study to Evaluate the Safety, Tolerability, Immunogenicity, and Efficacy of RNA Vaccine Candidates Against COVID-19 in Healthy Adults",C4591001 Clinical Protocol,"MDV.C4591001-Pfizer,-Inc.ADaM-IG.1.1","Study C4591001 Pfizer, Inc Data Definitions",2.0.0,ADaM-IG,1.1,IG.ADC19EF,ADC19EF,ADC19EF,Covid-19 Efficacy Analysis Dataset,,,,,IT.ADC19EF.EOSDCDT,EOSDCDT,End Of Study Discontinuation Date,integer,8,EOSDCDT,,,False,,,,,,,
FDA-CBER-2021-5683-1496005-1496178_27034_S1_M5_c4591001-safety-fa-eff-A-define.xml,"C4591001-Pfizer,-Inc.ADaM-IG.1.1","C4591001 Pfizer, Inc","A Phase 1/2/3 Study to Evaluate the Safety, Tolerability, Immunogenicity, and Efficacy of RNA Vaccine Candidates Against COVID-19 in Healthy Adults",C4591001 Clinical Protocol,"MDV.C4591001-Pfizer,-Inc.ADaM-IG.1.1","Study C4591001 Pfizer, Inc Data Definitions",2.0.0,ADaM-IG,1.1,IG.ADC19EF,ADC19EF,ADC19EF,Covid-19 Efficacy Analysis Dataset,,,,,IT.ADC19EF.RANDFL,RANDFL,Randomized Population Flag,text,1,RANDFL,,,True,,,,CL.NY,NY,text,"N: No;
Y: Yes"
FDA-CBER-2021-5683-1496005-1496178_27034_S1_M5_c4591001-safety-fa-eff-A-define.xml,"C4591001-Pfizer,-Inc.ADaM-IG.1.1","C4591001 Pfizer, Inc","A Phase 1/2/3 Study to Evaluate the Safety, Tolerability, Immunogenicity, and Efficacy of RNA Vaccine Candidates Against COVID-19 in Healthy Adults",C4591001 Clinical Protocol,"MDV.C4591001-Pfizer,-Inc.ADaM-IG.1.1","Study C4591001 Pfizer, Inc Data Definitions",2.0.0,ADaM-IG,1.1,IG.ADC19EF,ADC19EF,ADC19EF,Covid-19 Efficacy Analysis Dataset,,,,,IT.ADC19EF.EVALEFFL,EVALEFFL,Evaluable Efficacy Popu Flag,text,1,EVALEFFL,,,True,,,,CL.NY,NY,text,"N: No;
Y: Yes"
FDA-CBER-2021-5683-1496005-1496178_27034_S1_M5_c4591001-safety-fa-eff-A-define.xml,"C4591001-Pfizer,-Inc.ADaM-IG.1.1","C4591001 Pfizer, Inc","A Phase 1/2/3 Study to Evaluate the Safety, Tolerability, Immunogenicity, and Efficacy of RNA Vaccine Candidates Against COVID-19 in Healthy Adults",C4591001 Clinical Protocol,"MDV.C4591001-Pfizer,-Inc.ADaM-IG.1.1","Study C4591001 Pfizer, Inc Data Definitions",2.0.0,ADaM-IG,1.1,IG.ADC19EF,ADC19EF,ADC19EF,Covid-19 Efficacy Analysis Dataset,,,,,IT.ADC19EF.EV14EFFL,EV14EFFL,Evaluable Efficacy Popu Flag - 14 days,text,1,EV14EFFL,,,True,,,,,,,
FDA-CBER-2021-5683-1496005-1496178_27034_S1_M5_c4591001-safety-fa-eff-A-define.xml,"C4591001-Pfizer,-Inc.ADaM-IG.1.1","C4591001 Pfizer, Inc","A Phase 1/2/3 Study to Evaluate the Safety, Tolerability, Immunogenicity, and Efficacy of RNA Vaccine Candidates Against COVID-19 in Healthy Adults",C4591001 Clinical Protocol,"MDV.C4591001-Pfizer,-Inc.ADaM-IG.1.1","Study C4591001 Pfizer, Inc Data Definitions",2.0.0,ADaM-IG,1.1,IG.ADC19EF,ADC19EF,ADC19EF,Covid-19 Efficacy Analysis Dataset,,,,,IT.ADC19EF.AAI1EFFL,AAI1EFFL,Dose 1 all-available Efficacy Popu Flag,text,1,AAI1EFFL,,,True,,,,CL.NY,NY,text,"N: No;
Y: Yes"
FDA-CBER-2021-5683-1496005-1496178_27034_S1_M5_c4591001-safety-fa-eff-A-define.xml,"C4591001-Pfizer,-Inc.ADaM-IG.1.1","C4591001 Pfizer, Inc","A Phase 1/2/3 Study to Evaluate the Safety, Tolerability, Immunogenicity, and Efficacy of RNA Vaccine Candidates Against COVID-19 in Healthy Adults",C4591001 Clinical Protocol,"MDV.C4591001-Pfizer,-Inc.ADaM-IG.1.1","Study C4591001 Pfizer, Inc Data Definitions",2.0.0,ADaM-IG,1.1,IG.ADC19EF,ADC19EF,ADC19EF,Covid-19 Efficacy Analysis Dataset,,,,,IT.ADC19EF.AAI2EFFL,AAI2EFFL,Dose 2 all-available Efficacy Popu Flag,text,1,AAI2EFFL,,,True,,,,CL.NY,NY,text,"N: No;
Y: Yes"
FDA-CBER-2021-5683-1496005-1496178_27034_S1_M5_c4591001-safety-fa-eff-A-define.xml,"C4591001-Pfizer,-Inc.ADaM-IG.1.1","C4591001 Pfizer, Inc","A Phase 1/2/3 Study to Evaluate the Safety, Tolerability, Immunogenicity, and Efficacy of RNA Vaccine Candidates Against COVID-19 in Healthy Adults",C4591001 Clinical Protocol,"MDV.C4591001-Pfizer,-Inc.ADaM-IG.1.1","Study C4591001 Pfizer, Inc Data Definitions",2.0.0,ADaM-IG,1.1,IG.ADC19EF,ADC19EF,ADC19EF,Covid-19 Efficacy Analysis Dataset,,,,,IT.ADC19EF.DTHFL,DTHFL,Subject Death Flag,text,1,DTHFL,,,False,,,,CL.Y,Y,text,Y: Yes
FDA-CBER-2021-5683-1496005-1496178_27034_S1_M5_c4591001-safety-fa-eff-A-define.xml,"C4591001-Pfizer,-Inc.ADaM-IG.1.1","C4591001 Pfizer, Inc","A Phase 1/2/3 Study to Evaluate the Safety, Tolerability, Immunogenicity, and Efficacy of RNA Vaccine Candidates Against COVID-19 in Healthy Adults",C4591001 Clinical Protocol,"MDV.C4591001-Pfizer,-Inc.ADaM-IG.1.1","Study C4591001 Pfizer, Inc Data Definitions",2.0.0,ADaM-IG,1.1,IG.ADC19EF,ADC19EF,ADC19EF,Covid-19 Efficacy Analysis Dataset,,,,,IT.ADC19EF.C19ILHFL,C19ILHFL,Prior Covid-19 Illness History Flag,text,1,C19ILHFL,,,False,,,,CL.Y,Y,text,Y: Yes
FDA-CBER-2021-5683-1496005-1496178_27034_S1_M5_c4591001-safety-fa-eff-A-define.xml,"C4591001-Pfizer,-Inc.ADaM-IG.1.1","C4591001 Pfizer, Inc","A Phase 1/2/3 Study to Evaluate the Safety, Tolerability, Immunogenicity, and Efficacy of RNA Vaccine Candidates Against COVID-19 in Healthy Adults",C4591001 Clinical Protocol,"MDV.C4591001-Pfizer,-Inc.ADaM-IG.1.1","Study C4591001 Pfizer, Inc Data Definitions",2.0.0,ADaM-IG,1.1,IG.ADC19EF,ADC19EF,ADC19EF,Covid-19 Efficacy Analysis Dataset,,,,,IT.ADC19EF.CNCRSLFL,CNCRSLFL,Consider Result for Analysis Flag,text,1,CNCRSLFL,,,False,,MT.ADC19EF.CNCRSLFL,,CL.Y,Y,text,Y: Yes
FDA-CBER-2021-5683-1496005-1496178_27034_S1_M5_c4591001-safety-fa-eff-A-define.xml,"C4591001-Pfizer,-Inc.ADaM-IG.1.1","C4591001 Pfizer, Inc","A Phase 1/2/3 Study to Evaluate the Safety, Tolerability, Immunogenicity, and Efficacy of RNA Vaccine Candidates Against COVID-19 in Healthy Adults",C4591001 Clinical Protocol,"MDV.C4591001-Pfizer,-Inc.ADaM-IG.1.1","Study C4591001 Pfizer, Inc Data Definitions",2.0.0,ADaM-IG,1.1,IG.ADC19EF,ADC19EF,ADC19EF,Covid-19 Efficacy Analysis Dataset,,,,,IT.ADC19EF.VRBLNGFL,VRBLNGFL,NVA Baseline Result Negative Flag,text,1,VRBLNGFL,,,False,,MT.ADC19EF.VRBLNGFL,,CL.NY,NY,text,"N: No;
Y: Yes"
FDA-CBER-2021-5683-1496005-1496178_27034_S1_M5_c4591001-safety-fa-eff-A-define.xml,"C4591001-Pfizer,-Inc.ADaM-IG.1.1","C4591001 Pfizer, Inc","A Phase 1/2/3 Study to Evaluate the Safety, Tolerability, Immunogenicity, and Efficacy of RNA Vaccine Candidates Against COVID-19 in Healthy Adults",C4591001 Clinical Protocol,"MDV.C4591001-Pfizer,-Inc.ADaM-IG.1.1","Study C4591001 Pfizer, Inc Data Definitions",2.0.0,ADaM-IG,1.1,IG.ADC19EF,ADC19EF,ADC19EF,Covid-19 Efficacy Analysis Dataset,,,,,IT.ADC19EF.CRD1NGFL,CRD1NGFL,NAAT Result At Dose 1 Negative Flag,text,1,CRD1NGFL,,,False,,MT.ADC19EF.CRD1NGFL,,CL.NY,NY,text,"N: No;
Y: Yes"
FDA-CBER-2021-5683-1496005-1496178_27034_S1_M5_c4591001-safety-fa-eff-A-define.xml,"C4591001-Pfizer,-Inc.ADaM-IG.1.1","C4591001 Pfizer, Inc","A Phase 1/2/3 Study to Evaluate the Safety, Tolerability, Immunogenicity, and Efficacy of RNA Vaccine Candidates Against COVID-19 in Healthy Adults",C4591001 Clinical Protocol,"MDV.C4591001-Pfizer,-Inc.ADaM-IG.1.1","Study C4591001 Pfizer, Inc Data Definitions",2.0.0,ADaM-IG,1.1,IG.ADC19EF,ADC19EF,ADC19EF,Covid-19 Efficacy Analysis Dataset,,,,,IT.ADC19EF.CRD2NGFL,CRD2NGFL,NAAT Result At Dose 2 Negative Flag,text,1,CRD2NGFL,,,False,,MT.ADC19EF.CRD2NGFL,,CL.NY,NY,text,"N: No;
Y: Yes"
FDA-CBER-2021-5683-1496005-1496178_27034_S1_M5_c4591001-safety-fa-eff-A-define.xml,"C4591001-Pfizer,-Inc.ADaM-IG.1.1","C4591001 Pfizer, Inc","A Phase 1/2/3 Study to Evaluate the Safety, Tolerability, Immunogenicity, and Efficacy of RNA Vaccine Candidates Against COVID-19 in Healthy Adults",C4591001 Clinical Protocol,"MDV.C4591001-Pfizer,-Inc.ADaM-IG.1.1","Study C4591001 Pfizer, Inc Data Definitions",2.0.0,ADaM-IG,1.1,IG.ADC19EF,ADC19EF,ADC19EF,Covid-19 Efficacy Analysis Dataset,,,,,IT.ADC19EF.PDSYMFL,PDSYMFL,Protocol Defined SYMP Present Flag,text,1,PDSYMFL,,,True,,MT.ADC19EF.PDSYMFL,,CL.NY,NY,text,"N: No;
Y: Yes"
FDA-CBER-2021-5683-1496005-1496178_27034_S1_M5_c4591001-safety-fa-eff-A-define.xml,"C4591001-Pfizer,-Inc.ADaM-IG.1.1","C4591001 Pfizer, Inc","A Phase 1/2/3 Study to Evaluate the Safety, Tolerability, Immunogenicity, and Efficacy of RNA Vaccine Candidates Against COVID-19 in Healthy Adults",C4591001 Clinical Protocol,"MDV.C4591001-Pfizer,-Inc.ADaM-IG.1.1","Study C4591001 Pfizer, Inc Data Definitions",2.0.0,ADaM-IG,1.1,IG.ADC19EF,ADC19EF,ADC19EF,Covid-19 Efficacy Analysis Dataset,,,,,IT.ADC19EF.PDSDMFL,PDSDMFL,Protocol Defined SYMP Date Missing Flag,text,1,PDSDMFL,,,True,,MT.ADC19EF.PDSDMFL,,CL.NY,NY,text,"N: No;
Y: Yes"
FDA-CBER-2021-5683-1496005-1496178_27034_S1_M5_c4591001-safety-fa-eff-A-define.xml,"C4591001-Pfizer,-Inc.ADaM-IG.1.1","C4591001 Pfizer, Inc","A Phase 1/2/3 Study to Evaluate the Safety, Tolerability, Immunogenicity, and Efficacy of RNA Vaccine Candidates Against COVID-19 in Healthy Adults",C4591001 Clinical Protocol,"MDV.C4591001-Pfizer,-Inc.ADaM-IG.1.1","Study C4591001 Pfizer, Inc Data Definitions",2.0.0,ADaM-IG,1.1,IG.ADC19EF,ADC19EF,ADC19EF,Covid-19 Efficacy Analysis Dataset,,,,,IT.ADC19EF.CDCSYMFL,CDCSYMFL,CDC Defined SYMP Present Flag,text,1,CDCSYMFL,,,True,,MT.ADC19EF.CDCSYMFL,,CL.NY,NY,text,"N: No;
Y: Yes"
FDA-CBER-2021-5683-1496005-1496178_27034_S1_M5_c4591001-safety-fa-eff-A-define.xml,"C4591001-Pfizer,-Inc.ADaM-IG.1.1","C4591001 Pfizer, Inc","A Phase 1/2/3 Study to Evaluate the Safety, Tolerability, Immunogenicity, and Efficacy of RNA Vaccine Candidates Against COVID-19 in Healthy Adults",C4591001 Clinical Protocol,"MDV.C4591001-Pfizer,-Inc.ADaM-IG.1.1","Study C4591001 Pfizer, Inc Data Definitions",2.0.0,ADaM-IG,1.1,IG.ADC19EF,ADC19EF,ADC19EF,Covid-19 Efficacy Analysis Dataset,,,,,IT.ADC19EF.SEVSYMFL,SEVSYMFL,Severe Covid SYMP Present Flag,text,1,SEVSYMFL,,,True,,MT.ADC19EF.SEVSYMFL,,CL.NY,NY,text,"N: No;
Y: Yes"
FDA-CBER-2021-5683-1496005-1496178_27034_S1_M5_c4591001-safety-fa-eff-A-define.xml,"C4591001-Pfizer,-Inc.ADaM-IG.1.1","C4591001 Pfizer, Inc","A Phase 1/2/3 Study to Evaluate the Safety, Tolerability, Immunogenicity, and Efficacy of RNA Vaccine Candidates Against COVID-19 in Healthy Adults",C4591001 Clinical Protocol,"MDV.C4591001-Pfizer,-Inc.ADaM-IG.1.1","Study C4591001 Pfizer, Inc Data Definitions",2.0.0,ADaM-IG,1.1,IG.ADC19EF,ADC19EF,ADC19EF,Covid-19 Efficacy Analysis Dataset,,,,,IT.ADC19EF.ILD1FL,ILD1FL,Illness Occur After Dose 1 Flag,text,1,ILD1FL,,,False,,MT.ADC19EF.ILD1FL,,CL.NY,NY,text,"N: No;
Y: Yes"
FDA-CBER-2021-5683-1496005-1496178_27034_S1_M5_c4591001-safety-fa-eff-A-define.xml,"C4591001-Pfizer,-Inc.ADaM-IG.1.1","C4591001 Pfizer, Inc","A Phase 1/2/3 Study to Evaluate the Safety, Tolerability, Immunogenicity, and Efficacy of RNA Vaccine Candidates Against COVID-19 in Healthy Adults",C4591001 Clinical Protocol,"MDV.C4591001-Pfizer,-Inc.ADaM-IG.1.1","Study C4591001 Pfizer, Inc Data Definitions",2.0.0,ADaM-IG,1.1,IG.ADC19EF,ADC19EF,ADC19EF,Covid-19 Efficacy Analysis Dataset,,,,,IT.ADC19EF.ILD17FL,ILD17FL,Illness Occur 7 Days After Dose 1 Flag,text,1,ILD17FL,,,False,,MT.ADC19EF.ILD17FL,,CL.NY,NY,text,"N: No;
Y: Yes"
FDA-CBER-2021-5683-1496005-1496178_27034_S1_M5_c4591001-safety-fa-eff-A-define.xml,"C4591001-Pfizer,-Inc.ADaM-IG.1.1","C4591001 Pfizer, Inc","A Phase 1/2/3 Study to Evaluate the Safety, Tolerability, Immunogenicity, and Efficacy of RNA Vaccine Candidates Against COVID-19 in Healthy Adults",C4591001 Clinical Protocol,"MDV.C4591001-Pfizer,-Inc.ADaM-IG.1.1","Study C4591001 Pfizer, Inc Data Definitions",2.0.0,ADaM-IG,1.1,IG.ADC19EF,ADC19EF,ADC19EF,Covid-19 Efficacy Analysis Dataset,,,,,IT.ADC19EF.ILD2FL,ILD2FL,Illness Occur After Dose 2 Flag,text,1,ILD2FL,,,False,,MT.ADC19EF.ILD2FL,,CL.NY,NY,text,"N: No;
Y: Yes"
FDA-CBER-2021-5683-1496005-1496178_27034_S1_M5_c4591001-safety-fa-eff-A-define.xml,"C4591001-Pfizer,-Inc.ADaM-IG.1.1","C4591001 Pfizer, Inc","A Phase 1/2/3 Study to Evaluate the Safety, Tolerability, Immunogenicity, and Efficacy of RNA Vaccine Candidates Against COVID-19 in Healthy Adults",C4591001 Clinical Protocol,"MDV.C4591001-Pfizer,-Inc.ADaM-IG.1.1","Study C4591001 Pfizer, Inc Data Definitions",2.0.0,ADaM-IG,1.1,IG.ADC19EF,ADC19EF,ADC19EF,Covid-19 Efficacy Analysis Dataset,,,,,IT.ADC19EF.ILD27FL,ILD27FL,Illness Occur 7 Days After Dose 2 Flag,text,1,ILD27FL,,,False,,MT.ADC19EF.ILD27FL,,CL.NY,NY,text,"N: No;
Y: Yes"
FDA-CBER-2021-5683-1496005-1496178_27034_S1_M5_c4591001-safety-fa-eff-A-define.xml,"C4591001-Pfizer,-Inc.ADaM-IG.1.1","C4591001 Pfizer, Inc","A Phase 1/2/3 Study to Evaluate the Safety, Tolerability, Immunogenicity, and Efficacy of RNA Vaccine Candidates Against COVID-19 in Healthy Adults",C4591001 Clinical Protocol,"MDV.C4591001-Pfizer,-Inc.ADaM-IG.1.1","Study C4591001 Pfizer, Inc Data Definitions",2.0.0,ADaM-IG,1.1,IG.ADC19EF,ADC19EF,ADC19EF,Covid-19 Efficacy Analysis Dataset,,,,,IT.ADC19EF.ILD214FL,ILD214FL,Illness Occur 14 Days After Dose 2 Flag,text,1,ILD214FL,,,False,,MT.ADC19EF.ILD214FL,,CL.NY,NY,text,"N: No;
Y: Yes"
FDA-CBER-2021-5683-1496005-1496178_27034_S1_M5_c4591001-safety-fa-eff-A-define.xml,"C4591001-Pfizer,-Inc.ADaM-IG.1.1","C4591001 Pfizer, Inc","A Phase 1/2/3 Study to Evaluate the Safety, Tolerability, Immunogenicity, and Efficacy of RNA Vaccine Candidates Against COVID-19 in Healthy Adults",C4591001 Clinical Protocol,"MDV.C4591001-Pfizer,-Inc.ADaM-IG.1.1","Study C4591001 Pfizer, Inc Data Definitions",2.0.0,ADaM-IG,1.1,IG.ADC19EF,ADC19EF,ADC19EF,Covid-19 Efficacy Analysis Dataset,,,,,IT.ADC19EF.FILOCRFL,FILOCRFL,First Illness Occurrence Flag,text,1,FILOCRFL,,,False,,MT.ADC19EF.FILOCRFL,,CL.Y,Y,text,Y: Yes
FDA-CBER-2021-5683-1496005-1496178_27034_S1_M5_c4591001-safety-fa-eff-A-define.xml,"C4591001-Pfizer,-Inc.ADaM-IG.1.1","C4591001 Pfizer, Inc","A Phase 1/2/3 Study to Evaluate the Safety, Tolerability, Immunogenicity, and Efficacy of RNA Vaccine Candidates Against COVID-19 in Healthy Adults",C4591001 Clinical Protocol,"MDV.C4591001-Pfizer,-Inc.ADaM-IG.1.1","Study C4591001 Pfizer, Inc Data Definitions",2.0.0,ADaM-IG,1.1,IG.ADC19EF,ADC19EF,ADC19EF,Covid-19 Efficacy Analysis Dataset,,,,,IT.ADC19EF.PDRMUFL,PDRMUFL,PD SYMP Result Missing or Unknown Flag,text,1,PDRMUFL,,,True,,MT.ADC19EF.PDRMUFL,,CL.NY,NY,text,"N: No;
Y: Yes"
FDA-CBER-2021-5683-1496005-1496178_27034_S1_M5_c4591001-safety-fa-eff-A-define.xml,"C4591001-Pfizer,-Inc.ADaM-IG.1.1","C4591001 Pfizer, Inc","A Phase 1/2/3 Study to Evaluate the Safety, Tolerability, Immunogenicity, and Efficacy of RNA Vaccine Candidates Against COVID-19 in Healthy Adults",C4591001 Clinical Protocol,"MDV.C4591001-Pfizer,-Inc.ADaM-IG.1.1","Study C4591001 Pfizer, Inc Data Definitions",2.0.0,ADaM-IG,1.1,IG.ADC19EF,ADC19EF,ADC19EF,Covid-19 Efficacy Analysis Dataset,,,,,IT.ADC19EF.CDCRMUFL,CDCRMUFL,CDC SYMP Result Missing or Unknown Flag,text,1,CDCRMUFL,,,True,,MT.ADC19EF.CDCRMUFL,,CL.NY,NY,text,"N: No;
Y: Yes"
FDA-CBER-2021-5683-1496005-1496178_27034_S1_M5_c4591001-safety-fa-eff-A-define.xml,"C4591001-Pfizer,-Inc.ADaM-IG.1.1","C4591001 Pfizer, Inc","A Phase 1/2/3 Study to Evaluate the Safety, Tolerability, Immunogenicity, and Efficacy of RNA Vaccine Candidates Against COVID-19 in Healthy Adults",C4591001 Clinical Protocol,"MDV.C4591001-Pfizer,-Inc.ADaM-IG.1.1","Study C4591001 Pfizer, Inc Data Definitions",2.0.0,ADaM-IG,1.1,IG.ADC19EF,ADC19EF,ADC19EF,Covid-19 Efficacy Analysis Dataset,,,,,IT.ADC19EF.PDP1FL,PDP1FL,VE Prot Def Pop Incl Post D1 Flag,text,1,PDP1FL,,,True,,MT.ADC19EF.PDP1FL,,CL.NY,NY,text,"N: No;
Y: Yes"
FDA-CBER-2021-5683-1496005-1496178_27034_S1_M5_c4591001-safety-fa-eff-A-define.xml,"C4591001-Pfizer,-Inc.ADaM-IG.1.1","C4591001 Pfizer, Inc","A Phase 1/2/3 Study to Evaluate the Safety, Tolerability, Immunogenicity, and Efficacy of RNA Vaccine Candidates Against COVID-19 in Healthy Adults",C4591001 Clinical Protocol,"MDV.C4591001-Pfizer,-Inc.ADaM-IG.1.1","Study C4591001 Pfizer, Inc Data Definitions",2.0.0,ADaM-IG,1.1,IG.ADC19EF,ADC19EF,ADC19EF,Covid-19 Efficacy Analysis Dataset,,,,,IT.ADC19EF.PDP17FL,PDP17FL,VE Prot Def Pop Incl 7D Post D1 Flag,text,1,PDP17FL,,,True,,MT.ADC19EF.PDP17FL,,CL.NY,NY,text,"N: No;
Y: Yes"
FDA-CBER-2021-5683-1496005-1496178_27034_S1_M5_c4591001-safety-fa-eff-A-define.xml,"C4591001-Pfizer,-Inc.ADaM-IG.1.1","C4591001 Pfizer, Inc","A Phase 1/2/3 Study to Evaluate the Safety, Tolerability, Immunogenicity, and Efficacy of RNA Vaccine Candidates Against COVID-19 in Healthy Adults",C4591001 Clinical Protocol,"MDV.C4591001-Pfizer,-Inc.ADaM-IG.1.1","Study C4591001 Pfizer, Inc Data Definitions",2.0.0,ADaM-IG,1.1,IG.ADC19EF,ADC19EF,ADC19EF,Covid-19 Efficacy Analysis Dataset,,,,,IT.ADC19EF.PDP27FL,PDP27FL,VE Prot Def Pop Incl 7D Post D2 Flag,text,1,PDP27FL,,,True,,MT.ADC19EF.PDP27FL,,CL.NY,NY,text,"N: No;
Y: Yes"
FDA-CBER-2021-5683-1496005-1496178_27034_S1_M5_c4591001-safety-fa-eff-A-define.xml,"C4591001-Pfizer,-Inc.ADaM-IG.1.1","C4591001 Pfizer, Inc","A Phase 1/2/3 Study to Evaluate the Safety, Tolerability, Immunogenicity, and Efficacy of RNA Vaccine Candidates Against COVID-19 in Healthy Adults",C4591001 Clinical Protocol,"MDV.C4591001-Pfizer,-Inc.ADaM-IG.1.1","Study C4591001 Pfizer, Inc Data Definitions",2.0.0,ADaM-IG,1.1,IG.ADC19EF,ADC19EF,ADC19EF,Covid-19 Efficacy Analysis Dataset,,,,,IT.ADC19EF.PDP214FL,PDP214FL,VE Prot Def Pop Incl 14D Post D2 Flag,text,1,PDP214FL,,,True,,MT.ADC19EF.PDP214FL,,CL.NY,NY,text,"N: No;
Y: Yes"
FDA-CBER-2021-5683-1496005-1496178_27034_S1_M5_c4591001-safety-fa-eff-A-define.xml,"C4591001-Pfizer,-Inc.ADaM-IG.1.1","C4591001 Pfizer, Inc","A Phase 1/2/3 Study to Evaluate the Safety, Tolerability, Immunogenicity, and Efficacy of RNA Vaccine Candidates Against COVID-19 in Healthy Adults",C4591001 Clinical Protocol,"MDV.C4591001-Pfizer,-Inc.ADaM-IG.1.1","Study C4591001 Pfizer, Inc Data Definitions",2.0.0,ADaM-IG,1.1,IG.ADC19EF,ADC19EF,ADC19EF,Covid-19 Efficacy Analysis Dataset,,,,,IT.ADC19EF.CDP1FL,CDP1FL,VE CDC Def Pop Incl Post Dose 1 Flag,text,1,CDP1FL,,,True,,MT.ADC19EF.CDP1FL,,CL.NY,NY,text,"N: No;
Y: Yes"
FDA-CBER-2021-5683-1496005-1496178_27034_S1_M5_c4591001-safety-fa-eff-A-define.xml,"C4591001-Pfizer,-Inc.ADaM-IG.1.1","C4591001 Pfizer, Inc","A Phase 1/2/3 Study to Evaluate the Safety, Tolerability, Immunogenicity, and Efficacy of RNA Vaccine Candidates Against COVID-19 in Healthy Adults",C4591001 Clinical Protocol,"MDV.C4591001-Pfizer,-Inc.ADaM-IG.1.1","Study C4591001 Pfizer, Inc Data Definitions",2.0.0,ADaM-IG,1.1,IG.ADC19EF,ADC19EF,ADC19EF,Covid-19 Efficacy Analysis Dataset,,,,,IT.ADC19EF.CDP17FL,CDP17FL,VE CDC Def Pop Incl 7D Post Dose 1 Flag,text,1,CDP17FL,,,True,,MT.ADC19EF.CDP17FL,,CL.NY,NY,text,"N: No;
Y: Yes"
FDA-CBER-2021-5683-1496005-1496178_27034_S1_M5_c4591001-safety-fa-eff-A-define.xml,"C4591001-Pfizer,-Inc.ADaM-IG.1.1","C4591001 Pfizer, Inc","A Phase 1/2/3 Study to Evaluate the Safety, Tolerability, Immunogenicity, and Efficacy of RNA Vaccine Candidates Against COVID-19 in Healthy Adults",C4591001 Clinical Protocol,"MDV.C4591001-Pfizer,-Inc.ADaM-IG.1.1","Study C4591001 Pfizer, Inc Data Definitions",2.0.0,ADaM-IG,1.1,IG.ADC19EF,ADC19EF,ADC19EF,Covid-19 Efficacy Analysis Dataset,,,,,IT.ADC19EF.CDP27FL,CDP27FL,VE CDC Def Pop Incl 7D Post Dose 2 Flag,text,1,CDP27FL,,,True,,MT.ADC19EF.CDP27FL,,CL.NY,NY,text,"N: No;
Y: Yes"
FDA-CBER-2021-5683-1496005-1496178_27034_S1_M5_c4591001-safety-fa-eff-A-define.xml,"C4591001-Pfizer,-Inc.ADaM-IG.1.1","C4591001 Pfizer, Inc","A Phase 1/2/3 Study to Evaluate the Safety, Tolerability, Immunogenicity, and Efficacy of RNA Vaccine Candidates Against COVID-19 in Healthy Adults",C4591001 Clinical Protocol,"MDV.C4591001-Pfizer,-Inc.ADaM-IG.1.1","Study C4591001 Pfizer, Inc Data Definitions",2.0.0,ADaM-IG,1.1,IG.ADC19EF,ADC19EF,ADC19EF,Covid-19 Efficacy Analysis Dataset,,,,,IT.ADC19EF.CDP214FL,CDP214FL,VE CDC Def Pop Incl 14D Post Dose 2 Flag,text,1,CDP214FL,,,True,,MT.ADC19EF.CDP214FL,,CL.NY,NY,text,"N: No;
Y: Yes"
FDA-CBER-2021-5683-1496005-1496178_27034_S1_M5_c4591001-safety-fa-eff-A-define.xml,"C4591001-Pfizer,-Inc.ADaM-IG.1.1","C4591001 Pfizer, Inc","A Phase 1/2/3 Study to Evaluate the Safety, Tolerability, Immunogenicity, and Efficacy of RNA Vaccine Candidates Against COVID-19 in Healthy Adults",C4591001 Clinical Protocol,"MDV.C4591001-Pfizer,-Inc.ADaM-IG.1.1","Study C4591001 Pfizer, Inc Data Definitions",2.0.0,ADaM-IG,1.1,IG.ADC19EF,ADC19EF,ADC19EF,Covid-19 Efficacy Analysis Dataset,,,,,IT.ADC19EF.NMPDOCFL,NMPDOCFL,No Major Protocol Deviation Occur Flag,text,1,NMPDOCFL,,,False,,MT.ADC19EF.NMPDOCFL,,CL.Y,Y,text,Y: Yes
FDA-CBER-2021-5683-1496005-1496178_27034_S1_M5_c4591001-safety-fa-eff-A-define.xml,"C4591001-Pfizer,-Inc.ADaM-IG.1.1","C4591001 Pfizer, Inc","A Phase 1/2/3 Study to Evaluate the Safety, Tolerability, Immunogenicity, and Efficacy of RNA Vaccine Candidates Against COVID-19 in Healthy Adults",C4591001 Clinical Protocol,"MDV.C4591001-Pfizer,-Inc.ADaM-IG.1.1","Study C4591001 Pfizer, Inc Data Definitions",2.0.0,ADaM-IG,1.1,IG.ADFACEVD,ADFACEVD,ADFACEVD,Diary and Non-event Analysis Dataset,,,,,IT.ADFACEVD.STUDYID,STUDYID,Study Identifier,text,8,STUDYID,,,True,1,,,,,,
FDA-CBER-2021-5683-1496005-1496178_27034_S1_M5_c4591001-safety-fa-eff-A-define.xml,"C4591001-Pfizer,-Inc.ADaM-IG.1.1","C4591001 Pfizer, Inc","A Phase 1/2/3 Study to Evaluate the Safety, Tolerability, Immunogenicity, and Efficacy of RNA Vaccine Candidates Against COVID-19 in Healthy Adults",C4591001 Clinical Protocol,"MDV.C4591001-Pfizer,-Inc.ADaM-IG.1.1","Study C4591001 Pfizer, Inc Data Definitions",2.0.0,ADaM-IG,1.1,IG.ADFACEVD,ADFACEVD,ADFACEVD,Diary and Non-event Analysis Dataset,,,,,IT.ADFACEVD.USUBJID,USUBJID,Unique Subject Identifier,text,22,USUBJID,,,True,2,,,,,,
FDA-CBER-2021-5683-1496005-1496178_27034_S1_M5_c4591001-safety-fa-eff-A-define.xml,"C4591001-Pfizer,-Inc.ADaM-IG.1.1","C4591001 Pfizer, Inc","A Phase 1/2/3 Study to Evaluate the Safety, Tolerability, Immunogenicity, and Efficacy of RNA Vaccine Candidates Against COVID-19 in Healthy Adults",C4591001 Clinical Protocol,"MDV.C4591001-Pfizer,-Inc.ADaM-IG.1.1","Study C4591001 Pfizer, Inc Data Definitions",2.0.0,ADaM-IG,1.1,IG.ADFACEVD,ADFACEVD,ADFACEVD,Diary and Non-event Analysis Dataset,,,,,IT.ADFACEVD.SUBJID,SUBJID,Subject Identifier for the Study,text,8,SUBJID,,,True,,,,,,,
FDA-CBER-2021-5683-1496005-1496178_27034_S1_M5_c4591001-safety-fa-eff-A-define.xml,"C4591001-Pfizer,-Inc.ADaM-IG.1.1","C4591001 Pfizer, Inc","A Phase 1/2/3 Study to Evaluate the Safety, Tolerability, Immunogenicity, and Efficacy of RNA Vaccine Candidates Against COVID-19 in Healthy Adults",C4591001 Clinical Protocol,"MDV.C4591001-Pfizer,-Inc.ADaM-IG.1.1","Study C4591001 Pfizer, Inc Data Definitions",2.0.0,ADaM-IG,1.1,IG.ADFACEVD,ADFACEVD,ADFACEVD,Diary and Non-event Analysis Dataset,,,,,IT.ADFACEVD.SITEID,SITEID,Study Site Identifier,text,4,SITEID,,,True,,,,,,,
FDA-CBER-2021-5683-1496005-1496178_27034_S1_M5_c4591001-safety-fa-eff-A-define.xml,"C4591001-Pfizer,-Inc.ADaM-IG.1.1","C4591001 Pfizer, Inc","A Phase 1/2/3 Study to Evaluate the Safety, Tolerability, Immunogenicity, and Efficacy of RNA Vaccine Candidates Against COVID-19 in Healthy Adults",C4591001 Clinical Protocol,"MDV.C4591001-Pfizer,-Inc.ADaM-IG.1.1","Study C4591001 Pfizer, Inc Data Definitions",2.0.0,ADaM-IG,1.1,IG.ADFACEVD,ADFACEVD,ADFACEVD,Diary and Non-event Analysis Dataset,,,,,IT.ADFACEVD.AGE,AGE,Age,integer,8,AGE,,,True,,,,,,,
FDA-CBER-2021-5683-1496005-1496178_27034_S1_M5_c4591001-safety-fa-eff-A-define.xml,"C4591001-Pfizer,-Inc.ADaM-IG.1.1","C4591001 Pfizer, Inc","A Phase 1/2/3 Study to Evaluate the Safety, Tolerability, Immunogenicity, and Efficacy of RNA Vaccine Candidates Against COVID-19 in Healthy Adults",C4591001 Clinical Protocol,"MDV.C4591001-Pfizer,-Inc.ADaM-IG.1.1","Study C4591001 Pfizer, Inc Data Definitions",2.0.0,ADaM-IG,1.1,IG.ADFACEVD,ADFACEVD,ADFACEVD,Diary and Non-event Analysis Dataset,,,,,IT.ADFACEVD.AGEU,AGEU,Age Units,text,5,AGEU,,,True,,,,CL.AGEU,AGEU,text,YEARS: Year
FDA-CBER-2021-5683-1496005-1496178_27034_S1_M5_c4591001-safety-fa-eff-A-define.xml,"C4591001-Pfizer,-Inc.ADaM-IG.1.1","C4591001 Pfizer, Inc","A Phase 1/2/3 Study to Evaluate the Safety, Tolerability, Immunogenicity, and Efficacy of RNA Vaccine Candidates Against COVID-19 in Healthy Adults",C4591001 Clinical Protocol,"MDV.C4591001-Pfizer,-Inc.ADaM-IG.1.1","Study C4591001 Pfizer, Inc Data Definitions",2.0.0,ADaM-IG,1.1,IG.ADFACEVD,ADFACEVD,ADFACEVD,Diary and Non-event Analysis Dataset,,,,,IT.ADFACEVD.SEX,SEX,Sex,text,1,SEX,,,True,,,,CL.SEX,SEX,text,"F: Female;
M: Male"
FDA-CBER-2021-5683-1496005-1496178_27034_S1_M5_c4591001-safety-fa-eff-A-define.xml,"C4591001-Pfizer,-Inc.ADaM-IG.1.1","C4591001 Pfizer, Inc","A Phase 1/2/3 Study to Evaluate the Safety, Tolerability, Immunogenicity, and Efficacy of RNA Vaccine Candidates Against COVID-19 in Healthy Adults",C4591001 Clinical Protocol,"MDV.C4591001-Pfizer,-Inc.ADaM-IG.1.1","Study C4591001 Pfizer, Inc Data Definitions",2.0.0,ADaM-IG,1.1,IG.ADFACEVD,ADFACEVD,ADFACEVD,Diary and Non-event Analysis Dataset,,,,,IT.ADFACEVD.SEXN,SEXN,Sex (N),integer,8,SEXN,,,True,,,,,,,
FDA-CBER-2021-5683-1496005-1496178_27034_S1_M5_c4591001-safety-fa-eff-A-define.xml,"C4591001-Pfizer,-Inc.ADaM-IG.1.1","C4591001 Pfizer, Inc","A Phase 1/2/3 Study to Evaluate the Safety, Tolerability, Immunogenicity, and Efficacy of RNA Vaccine Candidates Against COVID-19 in Healthy Adults",C4591001 Clinical Protocol,"MDV.C4591001-Pfizer,-Inc.ADaM-IG.1.1","Study C4591001 Pfizer, Inc Data Definitions",2.0.0,ADaM-IG,1.1,IG.ADFACEVD,ADFACEVD,ADFACEVD,Diary and Non-event Analysis Dataset,,,,,IT.ADFACEVD.RACE,RACE,Race,text,41,RACE,,,True,,,,CL.RACE,RACE,text,"ASIAN: Asian;
AMERICAN INDIAN OR ALASKA NATIVE: American indian or alaska native;
BLACK OR AFRICAN AMERICAN: Black or african american;
MULTIPLE: Multiple;
NATIVE HAWAIIAN OR OTHER PACIFIC ISLANDER: Native hawaiian or other pacific islander;
NOT REPORTED: Not reported;
WHITE: White"
FDA-CBER-2021-5683-1496005-1496178_27034_S1_M5_c4591001-safety-fa-eff-A-define.xml,"C4591001-Pfizer,-Inc.ADaM-IG.1.1","C4591001 Pfizer, Inc","A Phase 1/2/3 Study to Evaluate the Safety, Tolerability, Immunogenicity, and Efficacy of RNA Vaccine Candidates Against COVID-19 in Healthy Adults",C4591001 Clinical Protocol,"MDV.C4591001-Pfizer,-Inc.ADaM-IG.1.1","Study C4591001 Pfizer, Inc Data Definitions",2.0.0,ADaM-IG,1.1,IG.ADFACEVD,ADFACEVD,ADFACEVD,Diary and Non-event Analysis Dataset,,,,,IT.ADFACEVD.RACEN,RACEN,Race (N),integer,8,RACEN,,,True,,,,,,,
FDA-CBER-2021-5683-1496005-1496178_27034_S1_M5_c4591001-safety-fa-eff-A-define.xml,"C4591001-Pfizer,-Inc.ADaM-IG.1.1","C4591001 Pfizer, Inc","A Phase 1/2/3 Study to Evaluate the Safety, Tolerability, Immunogenicity, and Efficacy of RNA Vaccine Candidates Against COVID-19 in Healthy Adults",C4591001 Clinical Protocol,"MDV.C4591001-Pfizer,-Inc.ADaM-IG.1.1","Study C4591001 Pfizer, Inc Data Definitions",2.0.0,ADaM-IG,1.1,IG.ADFACEVD,ADFACEVD,ADFACEVD,Diary and Non-event Analysis Dataset,,,,,IT.ADFACEVD.ARACE,ARACE,Analysis Race,text,41,ARACE,,,True,,,,CL.ARACE,ARACE,text,
FDA-CBER-2021-5683-1496005-1496178_27034_S1_M5_c4591001-safety-fa-eff-A-define.xml,"C4591001-Pfizer,-Inc.ADaM-IG.1.1","C4591001 Pfizer, Inc","A Phase 1/2/3 Study to Evaluate the Safety, Tolerability, Immunogenicity, and Efficacy of RNA Vaccine Candidates Against COVID-19 in Healthy Adults",C4591001 Clinical Protocol,"MDV.C4591001-Pfizer,-Inc.ADaM-IG.1.1","Study C4591001 Pfizer, Inc Data Definitions",2.0.0,ADaM-IG,1.1,IG.ADFACEVD,ADFACEVD,ADFACEVD,Diary and Non-event Analysis Dataset,,,,,IT.ADFACEVD.ARACEN,ARACEN,Analysis Race (N),integer,8,ARACEN,,,True,,,,,,,
FDA-CBER-2021-5683-1496005-1496178_27034_S1_M5_c4591001-safety-fa-eff-A-define.xml,"C4591001-Pfizer,-Inc.ADaM-IG.1.1","C4591001 Pfizer, Inc","A Phase 1/2/3 Study to Evaluate the Safety, Tolerability, Immunogenicity, and Efficacy of RNA Vaccine Candidates Against COVID-19 in Healthy Adults",C4591001 Clinical Protocol,"MDV.C4591001-Pfizer,-Inc.ADaM-IG.1.1","Study C4591001 Pfizer, Inc Data Definitions",2.0.0,ADaM-IG,1.1,IG.ADFACEVD,ADFACEVD,ADFACEVD,Diary and Non-event Analysis Dataset,,,,,IT.ADFACEVD.ETHNIC,ETHNIC,Ethnicity,text,22,ETHNIC,,,True,,,,CL.ETHNIC,ETHNIC,text,"HISPANIC OR LATINO: Hispanic or Latino;
NOT HISPANIC OR LATINO: Not Hispanic or Latino;
NOT REPORTED: Not Reported"
FDA-CBER-2021-5683-1496005-1496178_27034_S1_M5_c4591001-safety-fa-eff-A-define.xml,"C4591001-Pfizer,-Inc.ADaM-IG.1.1","C4591001 Pfizer, Inc","A Phase 1/2/3 Study to Evaluate the Safety, Tolerability, Immunogenicity, and Efficacy of RNA Vaccine Candidates Against COVID-19 in Healthy Adults",C4591001 Clinical Protocol,"MDV.C4591001-Pfizer,-Inc.ADaM-IG.1.1","Study C4591001 Pfizer, Inc Data Definitions",2.0.0,ADaM-IG,1.1,IG.ADFACEVD,ADFACEVD,ADFACEVD,Diary and Non-event Analysis Dataset,,,,,IT.ADFACEVD.ETHNICN,ETHNICN,Ethnicity (N),integer,8,ETHNICN,,,True,,,,,,,
FDA-CBER-2021-5683-1496005-1496178_27034_S1_M5_c4591001-safety-fa-eff-A-define.xml,"C4591001-Pfizer,-Inc.ADaM-IG.1.1","C4591001 Pfizer, Inc","A Phase 1/2/3 Study to Evaluate the Safety, Tolerability, Immunogenicity, and Efficacy of RNA Vaccine Candidates Against COVID-19 in Healthy Adults",C4591001 Clinical Protocol,"MDV.C4591001-Pfizer,-Inc.ADaM-IG.1.1","Study C4591001 Pfizer, Inc Data Definitions",2.0.0,ADaM-IG,1.1,IG.ADFACEVD,ADFACEVD,ADFACEVD,Diary and Non-event Analysis Dataset,,,,,IT.ADFACEVD.COUNTRY,COUNTRY,Country,text,3,COUNTRY,,,True,,,,,,,
FDA-CBER-2021-5683-1496005-1496178_27034_S1_M5_c4591001-safety-fa-eff-A-define.xml,"C4591001-Pfizer,-Inc.ADaM-IG.1.1","C4591001 Pfizer, Inc","A Phase 1/2/3 Study to Evaluate the Safety, Tolerability, Immunogenicity, and Efficacy of RNA Vaccine Candidates Against COVID-19 in Healthy Adults",C4591001 Clinical Protocol,"MDV.C4591001-Pfizer,-Inc.ADaM-IG.1.1","Study C4591001 Pfizer, Inc Data Definitions",2.0.0,ADaM-IG,1.1,IG.ADFACEVD,ADFACEVD,ADFACEVD,Diary and Non-event Analysis Dataset,,,,,IT.ADFACEVD.SAFFL,SAFFL,Safety Population Flag,text,1,SAFFL,,,True,,,,CL.NY,NY,text,"N: No;
Y: Yes"
FDA-CBER-2021-5683-1496005-1496178_27034_S1_M5_c4591001-safety-fa-eff-A-define.xml,"C4591001-Pfizer,-Inc.ADaM-IG.1.1","C4591001 Pfizer, Inc","A Phase 1/2/3 Study to Evaluate the Safety, Tolerability, Immunogenicity, and Efficacy of RNA Vaccine Candidates Against COVID-19 in Healthy Adults",C4591001 Clinical Protocol,"MDV.C4591001-Pfizer,-Inc.ADaM-IG.1.1","Study C4591001 Pfizer, Inc Data Definitions",2.0.0,ADaM-IG,1.1,IG.ADFACEVD,ADFACEVD,ADFACEVD,Diary and Non-event Analysis Dataset,,,,,IT.ADFACEVD.ARM,ARM,Description of Planned Arm,text,27,ARM,,,True,,,,,,,
FDA-CBER-2021-5683-1496005-1496178_27034_S1_M5_c4591001-safety-fa-eff-A-define.xml,"C4591001-Pfizer,-Inc.ADaM-IG.1.1","C4591001 Pfizer, Inc","A Phase 1/2/3 Study to Evaluate the Safety, Tolerability, Immunogenicity, and Efficacy of RNA Vaccine Candidates Against COVID-19 in Healthy Adults",C4591001 Clinical Protocol,"MDV.C4591001-Pfizer,-Inc.ADaM-IG.1.1","Study C4591001 Pfizer, Inc Data Definitions",2.0.0,ADaM-IG,1.1,IG.ADFACEVD,ADFACEVD,ADFACEVD,Diary and Non-event Analysis Dataset,,,,,IT.ADFACEVD.ARMCD,ARMCD,Planned Arm Code,text,9,ARMCD,,,True,,,,,,,
FDA-CBER-2021-5683-1496005-1496178_27034_S1_M5_c4591001-safety-fa-eff-A-define.xml,"C4591001-Pfizer,-Inc.ADaM-IG.1.1","C4591001 Pfizer, Inc","A Phase 1/2/3 Study to Evaluate the Safety, Tolerability, Immunogenicity, and Efficacy of RNA Vaccine Candidates Against COVID-19 in Healthy Adults",C4591001 Clinical Protocol,"MDV.C4591001-Pfizer,-Inc.ADaM-IG.1.1","Study C4591001 Pfizer, Inc Data Definitions",2.0.0,ADaM-IG,1.1,IG.ADFACEVD,ADFACEVD,ADFACEVD,Diary and Non-event Analysis Dataset,,,,,IT.ADFACEVD.ACTARM,ACTARM,Description of Actual Arm,text,27,ACTARM,,,True,,,,,,,
FDA-CBER-2021-5683-1496005-1496178_27034_S1_M5_c4591001-safety-fa-eff-A-define.xml,"C4591001-Pfizer,-Inc.ADaM-IG.1.1","C4591001 Pfizer, Inc","A Phase 1/2/3 Study to Evaluate the Safety, Tolerability, Immunogenicity, and Efficacy of RNA Vaccine Candidates Against COVID-19 in Healthy Adults",C4591001 Clinical Protocol,"MDV.C4591001-Pfizer,-Inc.ADaM-IG.1.1","Study C4591001 Pfizer, Inc Data Definitions",2.0.0,ADaM-IG,1.1,IG.ADFACEVD,ADFACEVD,ADFACEVD,Diary and Non-event Analysis Dataset,,,,,IT.ADFACEVD.ACTARMCD,ACTARMCD,Actual Arm Code,text,9,ACTARMCD,,,True,,,,,,,
FDA-CBER-2021-5683-1496005-1496178_27034_S1_M5_c4591001-safety-fa-eff-A-define.xml,"C4591001-Pfizer,-Inc.ADaM-IG.1.1","C4591001 Pfizer, Inc","A Phase 1/2/3 Study to Evaluate the Safety, Tolerability, Immunogenicity, and Efficacy of RNA Vaccine Candidates Against COVID-19 in Healthy Adults",C4591001 Clinical Protocol,"MDV.C4591001-Pfizer,-Inc.ADaM-IG.1.1","Study C4591001 Pfizer, Inc Data Definitions",2.0.0,ADaM-IG,1.1,IG.ADFACEVD,ADFACEVD,ADFACEVD,Diary and Non-event Analysis Dataset,,,,,IT.ADFACEVD.TRTSDT,TRTSDT,Date of First Exposure to Treatment,integer,8,TRTSDT,,,True,,,,,,,
FDA-CBER-2021-5683-1496005-1496178_27034_S1_M5_c4591001-safety-fa-eff-A-define.xml,"C4591001-Pfizer,-Inc.ADaM-IG.1.1","C4591001 Pfizer, Inc","A Phase 1/2/3 Study to Evaluate the Safety, Tolerability, Immunogenicity, and Efficacy of RNA Vaccine Candidates Against COVID-19 in Healthy Adults",C4591001 Clinical Protocol,"MDV.C4591001-Pfizer,-Inc.ADaM-IG.1.1","Study C4591001 Pfizer, Inc Data Definitions",2.0.0,ADaM-IG,1.1,IG.ADFACEVD,ADFACEVD,ADFACEVD,Diary and Non-event Analysis Dataset,,,,,IT.ADFACEVD.TRTSTM,TRTSTM,Time of First Exposure to Treatment,integer,8,TRTSTM,,,True,,,,,,,
FDA-CBER-2021-5683-1496005-1496178_27034_S1_M5_c4591001-safety-fa-eff-A-define.xml,"C4591001-Pfizer,-Inc.ADaM-IG.1.1","C4591001 Pfizer, Inc","A Phase 1/2/3 Study to Evaluate the Safety, Tolerability, Immunogenicity, and Efficacy of RNA Vaccine Candidates Against COVID-19 in Healthy Adults",C4591001 Clinical Protocol,"MDV.C4591001-Pfizer,-Inc.ADaM-IG.1.1","Study C4591001 Pfizer, Inc Data Definitions",2.0.0,ADaM-IG,1.1,IG.ADFACEVD,ADFACEVD,ADFACEVD,Diary and Non-event Analysis Dataset,,,,,IT.ADFACEVD.TRTSDTM,TRTSDTM,Datetime of First Exposure to Treatment,integer,8,TRTSDTM,,,True,,,,,,,
FDA-CBER-2021-5683-1496005-1496178_27034_S1_M5_c4591001-safety-fa-eff-A-define.xml,"C4591001-Pfizer,-Inc.ADaM-IG.1.1","C4591001 Pfizer, Inc","A Phase 1/2/3 Study to Evaluate the Safety, Tolerability, Immunogenicity, and Efficacy of RNA Vaccine Candidates Against COVID-19 in Healthy Adults",C4591001 Clinical Protocol,"MDV.C4591001-Pfizer,-Inc.ADaM-IG.1.1","Study C4591001 Pfizer, Inc Data Definitions",2.0.0,ADaM-IG,1.1,IG.ADFACEVD,ADFACEVD,ADFACEVD,Diary and Non-event Analysis Dataset,,,,,IT.ADFACEVD.TRTEDT,TRTEDT,Date of Last Exposure to Treatment,integer,8,TRTEDT,,,True,,,,,,,
FDA-CBER-2021-5683-1496005-1496178_27034_S1_M5_c4591001-safety-fa-eff-A-define.xml,"C4591001-Pfizer,-Inc.ADaM-IG.1.1","C4591001 Pfizer, Inc","A Phase 1/2/3 Study to Evaluate the Safety, Tolerability, Immunogenicity, and Efficacy of RNA Vaccine Candidates Against COVID-19 in Healthy Adults",C4591001 Clinical Protocol,"MDV.C4591001-Pfizer,-Inc.ADaM-IG.1.1","Study C4591001 Pfizer, Inc Data Definitions",2.0.0,ADaM-IG,1.1,IG.ADFACEVD,ADFACEVD,ADFACEVD,Diary and Non-event Analysis Dataset,,,,,IT.ADFACEVD.TRTETM,TRTETM,Time of Last Exposure to Treatment,integer,8,TRTETM,,,True,,,,,,,
FDA-CBER-2021-5683-1496005-1496178_27034_S1_M5_c4591001-safety-fa-eff-A-define.xml,"C4591001-Pfizer,-Inc.ADaM-IG.1.1","C4591001 Pfizer, Inc","A Phase 1/2/3 Study to Evaluate the Safety, Tolerability, Immunogenicity, and Efficacy of RNA Vaccine Candidates Against COVID-19 in Healthy Adults",C4591001 Clinical Protocol,"MDV.C4591001-Pfizer,-Inc.ADaM-IG.1.1","Study C4591001 Pfizer, Inc Data Definitions",2.0.0,ADaM-IG,1.1,IG.ADFACEVD,ADFACEVD,ADFACEVD,Diary and Non-event Analysis Dataset,,,,,IT.ADFACEVD.TRTEDTM,TRTEDTM,Datetime of Last Exposure to Treatment,integer,8,TRTEDTM,,,True,,,,,,,
FDA-CBER-2021-5683-1496005-1496178_27034_S1_M5_c4591001-safety-fa-eff-A-define.xml,"C4591001-Pfizer,-Inc.ADaM-IG.1.1","C4591001 Pfizer, Inc","A Phase 1/2/3 Study to Evaluate the Safety, Tolerability, Immunogenicity, and Efficacy of RNA Vaccine Candidates Against COVID-19 in Healthy Adults",C4591001 Clinical Protocol,"MDV.C4591001-Pfizer,-Inc.ADaM-IG.1.1","Study C4591001 Pfizer, Inc Data Definitions",2.0.0,ADaM-IG,1.1,IG.ADFACEVD,ADFACEVD,ADFACEVD,Diary and Non-event Analysis Dataset,,,,,IT.ADFACEVD.TRT01A,TRT01A,Actual Treatment for Period 01,text,27,TRT01A,,,False,,,,,,,
FDA-CBER-2021-5683-1496005-1496178_27034_S1_M5_c4591001-safety-fa-eff-A-define.xml,"C4591001-Pfizer,-Inc.ADaM-IG.1.1","C4591001 Pfizer, Inc","A Phase 1/2/3 Study to Evaluate the Safety, Tolerability, Immunogenicity, and Efficacy of RNA Vaccine Candidates Against COVID-19 in Healthy Adults",C4591001 Clinical Protocol,"MDV.C4591001-Pfizer,-Inc.ADaM-IG.1.1","Study C4591001 Pfizer, Inc Data Definitions",2.0.0,ADaM-IG,1.1,IG.ADFACEVD,ADFACEVD,ADFACEVD,Diary and Non-event Analysis Dataset,,,,,IT.ADFACEVD.TRT01AN,TRT01AN,Actual Treatment for Period 01 (N),integer,8,TRT01AN,,,False,,,,,,,
FDA-CBER-2021-5683-1496005-1496178_27034_S1_M5_c4591001-safety-fa-eff-A-define.xml,"C4591001-Pfizer,-Inc.ADaM-IG.1.1","C4591001 Pfizer, Inc","A Phase 1/2/3 Study to Evaluate the Safety, Tolerability, Immunogenicity, and Efficacy of RNA Vaccine Candidates Against COVID-19 in Healthy Adults",C4591001 Clinical Protocol,"MDV.C4591001-Pfizer,-Inc.ADaM-IG.1.1","Study C4591001 Pfizer, Inc Data Definitions",2.0.0,ADaM-IG,1.1,IG.ADFACEVD,ADFACEVD,ADFACEVD,Diary and Non-event Analysis Dataset,,,,,IT.ADFACEVD.TRT01P,TRT01P,Planned Treatment for Period 01,text,27,TRT01P,,,True,,,,,,,
FDA-CBER-2021-5683-1496005-1496178_27034_S1_M5_c4591001-safety-fa-eff-A-define.xml,"C4591001-Pfizer,-Inc.ADaM-IG.1.1","C4591001 Pfizer, Inc","A Phase 1/2/3 Study to Evaluate the Safety, Tolerability, Immunogenicity, and Efficacy of RNA Vaccine Candidates Against COVID-19 in Healthy Adults",C4591001 Clinical Protocol,"MDV.C4591001-Pfizer,-Inc.ADaM-IG.1.1","Study C4591001 Pfizer, Inc Data Definitions",2.0.0,ADaM-IG,1.1,IG.ADFACEVD,ADFACEVD,ADFACEVD,Diary and Non-event Analysis Dataset,,,,,IT.ADFACEVD.TRT01PN,TRT01PN,Planned Treatment for Period 01 (N),integer,8,TRT01PN,,,True,,,,,,,
FDA-CBER-2021-5683-1496005-1496178_27034_S1_M5_c4591001-safety-fa-eff-A-define.xml,"C4591001-Pfizer,-Inc.ADaM-IG.1.1","C4591001 Pfizer, Inc","A Phase 1/2/3 Study to Evaluate the Safety, Tolerability, Immunogenicity, and Efficacy of RNA Vaccine Candidates Against COVID-19 in Healthy Adults",C4591001 Clinical Protocol,"MDV.C4591001-Pfizer,-Inc.ADaM-IG.1.1","Study C4591001 Pfizer, Inc Data Definitions",2.0.0,ADaM-IG,1.1,IG.ADFACEVD,ADFACEVD,ADFACEVD,Diary and Non-event Analysis Dataset,,,,,IT.ADFACEVD.TR01SDT,TR01SDT,Date of First Exposure in Period 01,integer,8,TR01SDT,,,True,,,,,,,
FDA-CBER-2021-5683-1496005-1496178_27034_S1_M5_c4591001-safety-fa-eff-A-define.xml,"C4591001-Pfizer,-Inc.ADaM-IG.1.1","C4591001 Pfizer, Inc","A Phase 1/2/3 Study to Evaluate the Safety, Tolerability, Immunogenicity, and Efficacy of RNA Vaccine Candidates Against COVID-19 in Healthy Adults",C4591001 Clinical Protocol,"MDV.C4591001-Pfizer,-Inc.ADaM-IG.1.1","Study C4591001 Pfizer, Inc Data Definitions",2.0.0,ADaM-IG,1.1,IG.ADFACEVD,ADFACEVD,ADFACEVD,Diary and Non-event Analysis Dataset,,,,,IT.ADFACEVD.TR01STM,TR01STM,Time of First Exposure in Period 01,integer,8,TR01STM,,,True,,,,,,,
FDA-CBER-2021-5683-1496005-1496178_27034_S1_M5_c4591001-safety-fa-eff-A-define.xml,"C4591001-Pfizer,-Inc.ADaM-IG.1.1","C4591001 Pfizer, Inc","A Phase 1/2/3 Study to Evaluate the Safety, Tolerability, Immunogenicity, and Efficacy of RNA Vaccine Candidates Against COVID-19 in Healthy Adults",C4591001 Clinical Protocol,"MDV.C4591001-Pfizer,-Inc.ADaM-IG.1.1","Study C4591001 Pfizer, Inc Data Definitions",2.0.0,ADaM-IG,1.1,IG.ADFACEVD,ADFACEVD,ADFACEVD,Diary and Non-event Analysis Dataset,,,,,IT.ADFACEVD.TR01SDTM,TR01SDTM,Datetime of First Exposure in Period 01,integer,8,TR01SDTM,,,True,,,,,,,
FDA-CBER-2021-5683-1496005-1496178_27034_S1_M5_c4591001-safety-fa-eff-A-define.xml,"C4591001-Pfizer,-Inc.ADaM-IG.1.1","C4591001 Pfizer, Inc","A Phase 1/2/3 Study to Evaluate the Safety, Tolerability, Immunogenicity, and Efficacy of RNA Vaccine Candidates Against COVID-19 in Healthy Adults",C4591001 Clinical Protocol,"MDV.C4591001-Pfizer,-Inc.ADaM-IG.1.1","Study C4591001 Pfizer, Inc Data Definitions",2.0.0,ADaM-IG,1.1,IG.ADFACEVD,ADFACEVD,ADFACEVD,Diary and Non-event Analysis Dataset,,,,,IT.ADFACEVD.TR01EDT,TR01EDT,Date of Last Exposure in Period 01,integer,8,TR01EDT,,,True,,,,,,,
FDA-CBER-2021-5683-1496005-1496178_27034_S1_M5_c4591001-safety-fa-eff-A-define.xml,"C4591001-Pfizer,-Inc.ADaM-IG.1.1","C4591001 Pfizer, Inc","A Phase 1/2/3 Study to Evaluate the Safety, Tolerability, Immunogenicity, and Efficacy of RNA Vaccine Candidates Against COVID-19 in Healthy Adults",C4591001 Clinical Protocol,"MDV.C4591001-Pfizer,-Inc.ADaM-IG.1.1","Study C4591001 Pfizer, Inc Data Definitions",2.0.0,ADaM-IG,1.1,IG.ADFACEVD,ADFACEVD,ADFACEVD,Diary and Non-event Analysis Dataset,,,,,IT.ADFACEVD.TR01ETM,TR01ETM,Time of Last Exposure in Period 01,integer,8,TR01ETM,,,True,,,,,,,
FDA-CBER-2021-5683-1496005-1496178_27034_S1_M5_c4591001-safety-fa-eff-A-define.xml,"C4591001-Pfizer,-Inc.ADaM-IG.1.1","C4591001 Pfizer, Inc","A Phase 1/2/3 Study to Evaluate the Safety, Tolerability, Immunogenicity, and Efficacy of RNA Vaccine Candidates Against COVID-19 in Healthy Adults",C4591001 Clinical Protocol,"MDV.C4591001-Pfizer,-Inc.ADaM-IG.1.1","Study C4591001 Pfizer, Inc Data Definitions",2.0.0,ADaM-IG,1.1,IG.ADFACEVD,ADFACEVD,ADFACEVD,Diary and Non-event Analysis Dataset,,,,,IT.ADFACEVD.TR01EDTM,TR01EDTM,Datetime of Last Exposure in Period 01,integer,8,TR01EDTM,,,True,,,,,,,
FDA-CBER-2021-5683-1496005-1496178_27034_S1_M5_c4591001-safety-fa-eff-A-define.xml,"C4591001-Pfizer,-Inc.ADaM-IG.1.1","C4591001 Pfizer, Inc","A Phase 1/2/3 Study to Evaluate the Safety, Tolerability, Immunogenicity, and Efficacy of RNA Vaccine Candidates Against COVID-19 in Healthy Adults",C4591001 Clinical Protocol,"MDV.C4591001-Pfizer,-Inc.ADaM-IG.1.1","Study C4591001 Pfizer, Inc Data Definitions",2.0.0,ADaM-IG,1.1,IG.ADFACEVD,ADFACEVD,ADFACEVD,Diary and Non-event Analysis Dataset,,,,,IT.ADFACEVD.VAX101DT,VAX101DT,Vaccination Date 01,integer,8,VAX101DT,,,True,,,,,,,
FDA-CBER-2021-5683-1496005-1496178_27034_S1_M5_c4591001-safety-fa-eff-A-define.xml,"C4591001-Pfizer,-Inc.ADaM-IG.1.1","C4591001 Pfizer, Inc","A Phase 1/2/3 Study to Evaluate the Safety, Tolerability, Immunogenicity, and Efficacy of RNA Vaccine Candidates Against COVID-19 in Healthy Adults",C4591001 Clinical Protocol,"MDV.C4591001-Pfizer,-Inc.ADaM-IG.1.1","Study C4591001 Pfizer, Inc Data Definitions",2.0.0,ADaM-IG,1.1,IG.ADFACEVD,ADFACEVD,ADFACEVD,Diary and Non-event Analysis Dataset,,,,,IT.ADFACEVD.VAX102DT,VAX102DT,Vaccination Date 02,integer,8,VAX102DT,,,False,,,,,,,
FDA-CBER-2021-5683-1496005-1496178_27034_S1_M5_c4591001-safety-fa-eff-A-define.xml,"C4591001-Pfizer,-Inc.ADaM-IG.1.1","C4591001 Pfizer, Inc","A Phase 1/2/3 Study to Evaluate the Safety, Tolerability, Immunogenicity, and Efficacy of RNA Vaccine Candidates Against COVID-19 in Healthy Adults",C4591001 Clinical Protocol,"MDV.C4591001-Pfizer,-Inc.ADaM-IG.1.1","Study C4591001 Pfizer, Inc Data Definitions",2.0.0,ADaM-IG,1.1,IG.ADFACEVD,ADFACEVD,ADFACEVD,Diary and Non-event Analysis Dataset,,,,,IT.ADFACEVD.VAX103DT,VAX103DT,Vaccination Date 03,integer,8,VAX103DT,,,False,,,,,,,
FDA-CBER-2021-5683-1496005-1496178_27034_S1_M5_c4591001-safety-fa-eff-A-define.xml,"C4591001-Pfizer,-Inc.ADaM-IG.1.1","C4591001 Pfizer, Inc","A Phase 1/2/3 Study to Evaluate the Safety, Tolerability, Immunogenicity, and Efficacy of RNA Vaccine Candidates Against COVID-19 in Healthy Adults",C4591001 Clinical Protocol,"MDV.C4591001-Pfizer,-Inc.ADaM-IG.1.1","Study C4591001 Pfizer, Inc Data Definitions",2.0.0,ADaM-IG,1.1,IG.ADFACEVD,ADFACEVD,ADFACEVD,Diary and Non-event Analysis Dataset,,,,,IT.ADFACEVD.COHORT,COHORT,Cohort Group,text,75,COHORT,,,False,,,,,,,
FDA-CBER-2021-5683-1496005-1496178_27034_S1_M5_c4591001-safety-fa-eff-A-define.xml,"C4591001-Pfizer,-Inc.ADaM-IG.1.1","C4591001 Pfizer, Inc","A Phase 1/2/3 Study to Evaluate the Safety, Tolerability, Immunogenicity, and Efficacy of RNA Vaccine Candidates Against COVID-19 in Healthy Adults",C4591001 Clinical Protocol,"MDV.C4591001-Pfizer,-Inc.ADaM-IG.1.1","Study C4591001 Pfizer, Inc Data Definitions",2.0.0,ADaM-IG,1.1,IG.ADFACEVD,ADFACEVD,ADFACEVD,Diary and Non-event Analysis Dataset,,,,,IT.ADFACEVD.COHORTN,COHORTN,Cohort Group (N),float,8,COHORTN,,,False,,,,,,,
FDA-CBER-2021-5683-1496005-1496178_27034_S1_M5_c4591001-safety-fa-eff-A-define.xml,"C4591001-Pfizer,-Inc.ADaM-IG.1.1","C4591001 Pfizer, Inc","A Phase 1/2/3 Study to Evaluate the Safety, Tolerability, Immunogenicity, and Efficacy of RNA Vaccine Candidates Against COVID-19 in Healthy Adults",C4591001 Clinical Protocol,"MDV.C4591001-Pfizer,-Inc.ADaM-IG.1.1","Study C4591001 Pfizer, Inc Data Definitions",2.0.0,ADaM-IG,1.1,IG.ADFACEVD,ADFACEVD,ADFACEVD,Diary and Non-event Analysis Dataset,,,,,IT.ADFACEVD.DOSPLVL,DOSPLVL,Planned Dosing Level,text,52,DOSPLVL,,,False,,,,,,,
FDA-CBER-2021-5683-1496005-1496178_27034_S1_M5_c4591001-safety-fa-eff-A-define.xml,"C4591001-Pfizer,-Inc.ADaM-IG.1.1","C4591001 Pfizer, Inc","A Phase 1/2/3 Study to Evaluate the Safety, Tolerability, Immunogenicity, and Efficacy of RNA Vaccine Candidates Against COVID-19 in Healthy Adults",C4591001 Clinical Protocol,"MDV.C4591001-Pfizer,-Inc.ADaM-IG.1.1","Study C4591001 Pfizer, Inc Data Definitions",2.0.0,ADaM-IG,1.1,IG.ADFACEVD,ADFACEVD,ADFACEVD,Diary and Non-event Analysis Dataset,,,,,IT.ADFACEVD.DOSPLVLN,DOSPLVLN,Planned Dosing Level (N),integer,8,DOSPLVLN,,,False,,,,,,,
FDA-CBER-2021-5683-1496005-1496178_27034_S1_M5_c4591001-safety-fa-eff-A-define.xml,"C4591001-Pfizer,-Inc.ADaM-IG.1.1","C4591001 Pfizer, Inc","A Phase 1/2/3 Study to Evaluate the Safety, Tolerability, Immunogenicity, and Efficacy of RNA Vaccine Candidates Against COVID-19 in Healthy Adults",C4591001 Clinical Protocol,"MDV.C4591001-Pfizer,-Inc.ADaM-IG.1.1","Study C4591001 Pfizer, Inc Data Definitions",2.0.0,ADaM-IG,1.1,IG.ADFACEVD,ADFACEVD,ADFACEVD,Diary and Non-event Analysis Dataset,,,,,IT.ADFACEVD.DOSALVL,DOSALVL,Actual Dosing Level,text,52,DOSALVL,,,False,,,,,,,
FDA-CBER-2021-5683-1496005-1496178_27034_S1_M5_c4591001-safety-fa-eff-A-define.xml,"C4591001-Pfizer,-Inc.ADaM-IG.1.1","C4591001 Pfizer, Inc","A Phase 1/2/3 Study to Evaluate the Safety, Tolerability, Immunogenicity, and Efficacy of RNA Vaccine Candidates Against COVID-19 in Healthy Adults",C4591001 Clinical Protocol,"MDV.C4591001-Pfizer,-Inc.ADaM-IG.1.1","Study C4591001 Pfizer, Inc Data Definitions",2.0.0,ADaM-IG,1.1,IG.ADFACEVD,ADFACEVD,ADFACEVD,Diary and Non-event Analysis Dataset,,,,,IT.ADFACEVD.DOSALVLN,DOSALVLN,Actual Dosing Level (N),integer,8,DOSALVLN,,,False,,,,,,,
FDA-CBER-2021-5683-1496005-1496178_27034_S1_M5_c4591001-safety-fa-eff-A-define.xml,"C4591001-Pfizer,-Inc.ADaM-IG.1.1","C4591001 Pfizer, Inc","A Phase 1/2/3 Study to Evaluate the Safety, Tolerability, Immunogenicity, and Efficacy of RNA Vaccine Candidates Against COVID-19 in Healthy Adults",C4591001 Clinical Protocol,"MDV.C4591001-Pfizer,-Inc.ADaM-IG.1.1","Study C4591001 Pfizer, Inc Data Definitions",2.0.0,ADaM-IG,1.1,IG.ADFACEVD,ADFACEVD,ADFACEVD,Diary and Non-event Analysis Dataset,,,,,IT.ADFACEVD.PHASE,PHASE,Study Phase,text,20,PHASE,,,True,,,,,,,
FDA-CBER-2021-5683-1496005-1496178_27034_S1_M5_c4591001-safety-fa-eff-A-define.xml,"C4591001-Pfizer,-Inc.ADaM-IG.1.1","C4591001 Pfizer, Inc","A Phase 1/2/3 Study to Evaluate the Safety, Tolerability, Immunogenicity, and Efficacy of RNA Vaccine Candidates Against COVID-19 in Healthy Adults",C4591001 Clinical Protocol,"MDV.C4591001-Pfizer,-Inc.ADaM-IG.1.1","Study C4591001 Pfizer, Inc Data Definitions",2.0.0,ADaM-IG,1.1,IG.ADFACEVD,ADFACEVD,ADFACEVD,Diary and Non-event Analysis Dataset,,,,,IT.ADFACEVD.PHASEN,PHASEN,Study Phase (N),integer,8,PHASEN,,,True,,,,,,,
FDA-CBER-2021-5683-1496005-1496178_27034_S1_M5_c4591001-safety-fa-eff-A-define.xml,"C4591001-Pfizer,-Inc.ADaM-IG.1.1","C4591001 Pfizer, Inc","A Phase 1/2/3 Study to Evaluate the Safety, Tolerability, Immunogenicity, and Efficacy of RNA Vaccine Candidates Against COVID-19 in Healthy Adults",C4591001 Clinical Protocol,"MDV.C4591001-Pfizer,-Inc.ADaM-IG.1.1","Study C4591001 Pfizer, Inc Data Definitions",2.0.0,ADaM-IG,1.1,IG.ADFACEVD,ADFACEVD,ADFACEVD,Diary and Non-event Analysis Dataset,,,,,IT.ADFACEVD.AGEGR1,AGEGR1,Pooled Age Group 1,text,11,AGEGR1,,,True,,,,,,,
FDA-CBER-2021-5683-1496005-1496178_27034_S1_M5_c4591001-safety-fa-eff-A-define.xml,"C4591001-Pfizer,-Inc.ADaM-IG.1.1","C4591001 Pfizer, Inc","A Phase 1/2/3 Study to Evaluate the Safety, Tolerability, Immunogenicity, and Efficacy of RNA Vaccine Candidates Against COVID-19 in Healthy Adults",C4591001 Clinical Protocol,"MDV.C4591001-Pfizer,-Inc.ADaM-IG.1.1","Study C4591001 Pfizer, Inc Data Definitions",2.0.0,ADaM-IG,1.1,IG.ADFACEVD,ADFACEVD,ADFACEVD,Diary and Non-event Analysis Dataset,,,,,IT.ADFACEVD.AGEGR1N,AGEGR1N,Pooled Age Group 1 (N),integer,8,AGEGR1N,,,True,,,,,,,
FDA-CBER-2021-5683-1496005-1496178_27034_S1_M5_c4591001-safety-fa-eff-A-define.xml,"C4591001-Pfizer,-Inc.ADaM-IG.1.1","C4591001 Pfizer, Inc","A Phase 1/2/3 Study to Evaluate the Safety, Tolerability, Immunogenicity, and Efficacy of RNA Vaccine Candidates Against COVID-19 in Healthy Adults",C4591001 Clinical Protocol,"MDV.C4591001-Pfizer,-Inc.ADaM-IG.1.1","Study C4591001 Pfizer, Inc Data Definitions",2.0.0,ADaM-IG,1.1,IG.ADFACEVD,ADFACEVD,ADFACEVD,Diary and Non-event Analysis Dataset,,,,,IT.ADFACEVD.AGEGR2,AGEGR2,Pooled Age Group 2,text,10,AGEGR2,,,True,,,,,,,
FDA-CBER-2021-5683-1496005-1496178_27034_S1_M5_c4591001-safety-fa-eff-A-define.xml,"C4591001-Pfizer,-Inc.ADaM-IG.1.1","C4591001 Pfizer, Inc","A Phase 1/2/3 Study to Evaluate the Safety, Tolerability, Immunogenicity, and Efficacy of RNA Vaccine Candidates Against COVID-19 in Healthy Adults",C4591001 Clinical Protocol,"MDV.C4591001-Pfizer,-Inc.ADaM-IG.1.1","Study C4591001 Pfizer, Inc Data Definitions",2.0.0,ADaM-IG,1.1,IG.ADFACEVD,ADFACEVD,ADFACEVD,Diary and Non-event Analysis Dataset,,,,,IT.ADFACEVD.AGEGR2N,AGEGR2N,Pooled Age Group 2 (N),integer,8,AGEGR2N,,,True,,,,,,,
FDA-CBER-2021-5683-1496005-1496178_27034_S1_M5_c4591001-safety-fa-eff-A-define.xml,"C4591001-Pfizer,-Inc.ADaM-IG.1.1","C4591001 Pfizer, Inc","A Phase 1/2/3 Study to Evaluate the Safety, Tolerability, Immunogenicity, and Efficacy of RNA Vaccine Candidates Against COVID-19 in Healthy Adults",C4591001 Clinical Protocol,"MDV.C4591001-Pfizer,-Inc.ADaM-IG.1.1","Study C4591001 Pfizer, Inc Data Definitions",2.0.0,ADaM-IG,1.1,IG.ADFACEVD,ADFACEVD,ADFACEVD,Diary and Non-event Analysis Dataset,,,,,IT.ADFACEVD.RACEGR1,RACEGR1,Pooled Race Group 1,text,25,RACEGR1,,,True,,,,,,,
FDA-CBER-2021-5683-1496005-1496178_27034_S1_M5_c4591001-safety-fa-eff-A-define.xml,"C4591001-Pfizer,-Inc.ADaM-IG.1.1","C4591001 Pfizer, Inc","A Phase 1/2/3 Study to Evaluate the Safety, Tolerability, Immunogenicity, and Efficacy of RNA Vaccine Candidates Against COVID-19 in Healthy Adults",C4591001 Clinical Protocol,"MDV.C4591001-Pfizer,-Inc.ADaM-IG.1.1","Study C4591001 Pfizer, Inc Data Definitions",2.0.0,ADaM-IG,1.1,IG.ADFACEVD,ADFACEVD,ADFACEVD,Diary and Non-event Analysis Dataset,,,,,IT.ADFACEVD.RACEGR1N,RACEGR1N,Pooled Race Group 1 (N),integer,8,RACEGR1N,,,True,,,,,,,
FDA-CBER-2021-5683-1496005-1496178_27034_S1_M5_c4591001-safety-fa-eff-A-define.xml,"C4591001-Pfizer,-Inc.ADaM-IG.1.1","C4591001 Pfizer, Inc","A Phase 1/2/3 Study to Evaluate the Safety, Tolerability, Immunogenicity, and Efficacy of RNA Vaccine Candidates Against COVID-19 in Healthy Adults",C4591001 Clinical Protocol,"MDV.C4591001-Pfizer,-Inc.ADaM-IG.1.1","Study C4591001 Pfizer, Inc Data Definitions",2.0.0,ADaM-IG,1.1,IG.ADFACEVD,ADFACEVD,ADFACEVD,Diary and Non-event Analysis Dataset,,,,,IT.ADFACEVD.VAX101,VAX101,Vaccination 01,text,37,VAX101,,,False,,,,,,,
FDA-CBER-2021-5683-1496005-1496178_27034_S1_M5_c4591001-safety-fa-eff-A-define.xml,"C4591001-Pfizer,-Inc.ADaM-IG.1.1","C4591001 Pfizer, Inc","A Phase 1/2/3 Study to Evaluate the Safety, Tolerability, Immunogenicity, and Efficacy of RNA Vaccine Candidates Against COVID-19 in Healthy Adults",C4591001 Clinical Protocol,"MDV.C4591001-Pfizer,-Inc.ADaM-IG.1.1","Study C4591001 Pfizer, Inc Data Definitions",2.0.0,ADaM-IG,1.1,IG.ADFACEVD,ADFACEVD,ADFACEVD,Diary and Non-event Analysis Dataset,,,,,IT.ADFACEVD.VAX102,VAX102,Vaccination 02,text,36,VAX102,,,False,,,,,,,
FDA-CBER-2021-5683-1496005-1496178_27034_S1_M5_c4591001-safety-fa-eff-A-define.xml,"C4591001-Pfizer,-Inc.ADaM-IG.1.1","C4591001 Pfizer, Inc","A Phase 1/2/3 Study to Evaluate the Safety, Tolerability, Immunogenicity, and Efficacy of RNA Vaccine Candidates Against COVID-19 in Healthy Adults",C4591001 Clinical Protocol,"MDV.C4591001-Pfizer,-Inc.ADaM-IG.1.1","Study C4591001 Pfizer, Inc Data Definitions",2.0.0,ADaM-IG,1.1,IG.ADFACEVD,ADFACEVD,ADFACEVD,Diary and Non-event Analysis Dataset,,,,,IT.ADFACEVD.VAX103,VAX103,Vaccination 03,text,36,VAX103,,,False,,,,,,,
FDA-CBER-2021-5683-1496005-1496178_27034_S1_M5_c4591001-safety-fa-eff-A-define.xml,"C4591001-Pfizer,-Inc.ADaM-IG.1.1","C4591001 Pfizer, Inc","A Phase 1/2/3 Study to Evaluate the Safety, Tolerability, Immunogenicity, and Efficacy of RNA Vaccine Candidates Against COVID-19 in Healthy Adults",C4591001 Clinical Protocol,"MDV.C4591001-Pfizer,-Inc.ADaM-IG.1.1","Study C4591001 Pfizer, Inc Data Definitions",2.0.0,ADaM-IG,1.1,IG.ADFACEVD,ADFACEVD,ADFACEVD,Diary and Non-event Analysis Dataset,,,,,IT.ADFACEVD.DS30KFL,DS30KFL,Phase 3 30k Subjects Flag,text,1,DS30KFL,,,True,,,,CL.NY,NY,text,"N: No;
Y: Yes"
FDA-CBER-2021-5683-1496005-1496178_27034_S1_M5_c4591001-safety-fa-eff-A-define.xml,"C4591001-Pfizer,-Inc.ADaM-IG.1.1","C4591001 Pfizer, Inc","A Phase 1/2/3 Study to Evaluate the Safety, Tolerability, Immunogenicity, and Efficacy of RNA Vaccine Candidates Against COVID-19 in Healthy Adults",C4591001 Clinical Protocol,"MDV.C4591001-Pfizer,-Inc.ADaM-IG.1.1","Study C4591001 Pfizer, Inc Data Definitions",2.0.0,ADaM-IG,1.1,IG.ADFACEVD,ADFACEVD,ADFACEVD,Diary and Non-event Analysis Dataset,,,,,IT.ADFACEVD.COVBLST,COVBLST,Baseline SARS-CoV-2 Status,text,3,COVBLST,,,False,,,,,,,
FDA-CBER-2021-5683-1496005-1496178_27034_S1_M5_c4591001-safety-fa-eff-A-define.xml,"C4591001-Pfizer,-Inc.ADaM-IG.1.1","C4591001 Pfizer, Inc","A Phase 1/2/3 Study to Evaluate the Safety, Tolerability, Immunogenicity, and Efficacy of RNA Vaccine Candidates Against COVID-19 in Healthy Adults",C4591001 Clinical Protocol,"MDV.C4591001-Pfizer,-Inc.ADaM-IG.1.1","Study C4591001 Pfizer, Inc Data Definitions",2.0.0,ADaM-IG,1.1,IG.ADFACEVD,ADFACEVD,ADFACEVD,Diary and Non-event Analysis Dataset,,,,,IT.ADFACEVD.MULENRFL,MULENRFL,Multiply Enrolled Subjects,text,1,MULENRFL,,,False,,,,,,,
FDA-CBER-2021-5683-1496005-1496178_27034_S1_M5_c4591001-safety-fa-eff-A-define.xml,"C4591001-Pfizer,-Inc.ADaM-IG.1.1","C4591001 Pfizer, Inc","A Phase 1/2/3 Study to Evaluate the Safety, Tolerability, Immunogenicity, and Efficacy of RNA Vaccine Candidates Against COVID-19 in Healthy Adults",C4591001 Clinical Protocol,"MDV.C4591001-Pfizer,-Inc.ADaM-IG.1.1","Study C4591001 Pfizer, Inc Data Definitions",2.0.0,ADaM-IG,1.1,IG.ADFACEVD,ADFACEVD,ADFACEVD,Diary and Non-event Analysis Dataset,,,,,IT.ADFACEVD.STEXCFL,STEXCFL,Site/Subject Exclusion Flag for SQE,text,1,STEXCFL,,,False,,,,,,,
FDA-CBER-2021-5683-1496005-1496178_27034_S1_M5_c4591001-safety-fa-eff-A-define.xml,"C4591001-Pfizer,-Inc.ADaM-IG.1.1","C4591001 Pfizer, Inc","A Phase 1/2/3 Study to Evaluate the Safety, Tolerability, Immunogenicity, and Efficacy of RNA Vaccine Candidates Against COVID-19 in Healthy Adults",C4591001 Clinical Protocol,"MDV.C4591001-Pfizer,-Inc.ADaM-IG.1.1","Study C4591001 Pfizer, Inc Data Definitions",2.0.0,ADaM-IG,1.1,IG.ADFACEVD,ADFACEVD,ADFACEVD,Diary and Non-event Analysis Dataset,,,,,IT.ADFACEVD.HIVFL,HIVFL,HIV Positive Subjects Flag,text,1,HIVFL,,,True,,,,,,,
FDA-CBER-2021-5683-1496005-1496178_27034_S1_M5_c4591001-safety-fa-eff-A-define.xml,"C4591001-Pfizer,-Inc.ADaM-IG.1.1","C4591001 Pfizer, Inc","A Phase 1/2/3 Study to Evaluate the Safety, Tolerability, Immunogenicity, and Efficacy of RNA Vaccine Candidates Against COVID-19 in Healthy Adults",C4591001 Clinical Protocol,"MDV.C4591001-Pfizer,-Inc.ADaM-IG.1.1","Study C4591001 Pfizer, Inc Data Definitions",2.0.0,ADaM-IG,1.1,IG.ADFACEVD,ADFACEVD,ADFACEVD,Diary and Non-event Analysis Dataset,,,,,IT.ADFACEVD.SRCDOM,SRCDOM,Source Data,text,2,SRCDOM,,,False,,,,,,,
FDA-CBER-2021-5683-1496005-1496178_27034_S1_M5_c4591001-safety-fa-eff-A-define.xml,"C4591001-Pfizer,-Inc.ADaM-IG.1.1","C4591001 Pfizer, Inc","A Phase 1/2/3 Study to Evaluate the Safety, Tolerability, Immunogenicity, and Efficacy of RNA Vaccine Candidates Against COVID-19 in Healthy Adults",C4591001 Clinical Protocol,"MDV.C4591001-Pfizer,-Inc.ADaM-IG.1.1","Study C4591001 Pfizer, Inc Data Definitions",2.0.0,ADaM-IG,1.1,IG.ADFACEVD,ADFACEVD,ADFACEVD,Diary and Non-event Analysis Dataset,,,,,IT.ADFACEVD.SRCSEQ,SRCSEQ,Source Sequence Number,integer,8,SRCSEQ,,,False,,MT.ADFACEVD.SRCSEQ,,,,,
FDA-CBER-2021-5683-1496005-1496178_27034_S1_M5_c4591001-safety-fa-eff-A-define.xml,"C4591001-Pfizer,-Inc.ADaM-IG.1.1","C4591001 Pfizer, Inc","A Phase 1/2/3 Study to Evaluate the Safety, Tolerability, Immunogenicity, and Efficacy of RNA Vaccine Candidates Against COVID-19 in Healthy Adults",C4591001 Clinical Protocol,"MDV.C4591001-Pfizer,-Inc.ADaM-IG.1.1","Study C4591001 Pfizer, Inc Data Definitions",2.0.0,ADaM-IG,1.1,IG.ADFACEVD,ADFACEVD,ADFACEVD,Diary and Non-event Analysis Dataset,,,,,IT.ADFACEVD.FAGRPID,FAGRPID,Group ID,text,33,FAGRPID,,,False,,MT.ADFACEVD.FAGRPID,,,,,
FDA-CBER-2021-5683-1496005-1496178_27034_S1_M5_c4591001-safety-fa-eff-A-define.xml,"C4591001-Pfizer,-Inc.ADaM-IG.1.1","C4591001 Pfizer, Inc","A Phase 1/2/3 Study to Evaluate the Safety, Tolerability, Immunogenicity, and Efficacy of RNA Vaccine Candidates Against COVID-19 in Healthy Adults",C4591001 Clinical Protocol,"MDV.C4591001-Pfizer,-Inc.ADaM-IG.1.1","Study C4591001 Pfizer, Inc Data Definitions",2.0.0,ADaM-IG,1.1,IG.ADFACEVD,ADFACEVD,ADFACEVD,Diary and Non-event Analysis Dataset,,,,,IT.ADFACEVD.FALNKID,FALNKID,Link ID,text,77,FALNKID,,,False,,MT.ADFACEVD.FALNKID,,,,,
FDA-CBER-2021-5683-1496005-1496178_27034_S1_M5_c4591001-safety-fa-eff-A-define.xml,"C4591001-Pfizer,-Inc.ADaM-IG.1.1","C4591001 Pfizer, Inc","A Phase 1/2/3 Study to Evaluate the Safety, Tolerability, Immunogenicity, and Efficacy of RNA Vaccine Candidates Against COVID-19 in Healthy Adults",C4591001 Clinical Protocol,"MDV.C4591001-Pfizer,-Inc.ADaM-IG.1.1","Study C4591001 Pfizer, Inc Data Definitions",2.0.0,ADaM-IG,1.1,IG.ADFACEVD,ADFACEVD,ADFACEVD,Diary and Non-event Analysis Dataset,,,,,IT.ADFACEVD.FALNKGRP,FALNKGRP,Link Group ID,text,71,FALNKGRP,,,False,,,,,,,
FDA-CBER-2021-5683-1496005-1496178_27034_S1_M5_c4591001-safety-fa-eff-A-define.xml,"C4591001-Pfizer,-Inc.ADaM-IG.1.1","C4591001 Pfizer, Inc","A Phase 1/2/3 Study to Evaluate the Safety, Tolerability, Immunogenicity, and Efficacy of RNA Vaccine Candidates Against COVID-19 in Healthy Adults",C4591001 Clinical Protocol,"MDV.C4591001-Pfizer,-Inc.ADaM-IG.1.1","Study C4591001 Pfizer, Inc Data Definitions",2.0.0,ADaM-IG,1.1,IG.ADFACEVD,ADFACEVD,ADFACEVD,Diary and Non-event Analysis Dataset,,,,,IT.ADFACEVD.FATEST,FATEST,Findings About Test Name,text,40,FATEST,,,False,,MT.ADFACEVD.FATEST,,,,,
FDA-CBER-2021-5683-1496005-1496178_27034_S1_M5_c4591001-safety-fa-eff-A-define.xml,"C4591001-Pfizer,-Inc.ADaM-IG.1.1","C4591001 Pfizer, Inc","A Phase 1/2/3 Study to Evaluate the Safety, Tolerability, Immunogenicity, and Efficacy of RNA Vaccine Candidates Against COVID-19 in Healthy Adults",C4591001 Clinical Protocol,"MDV.C4591001-Pfizer,-Inc.ADaM-IG.1.1","Study C4591001 Pfizer, Inc Data Definitions",2.0.0,ADaM-IG,1.1,IG.ADFACEVD,ADFACEVD,ADFACEVD,Diary and Non-event Analysis Dataset,,,,,IT.ADFACEVD.FATESTCD,FATESTCD,Findings About Test Short Name,text,8,FATESTCD,,,False,,MT.ADFACEVD.FATESTCD,,,,,
FDA-CBER-2021-5683-1496005-1496178_27034_S1_M5_c4591001-safety-fa-eff-A-define.xml,"C4591001-Pfizer,-Inc.ADaM-IG.1.1","C4591001 Pfizer, Inc","A Phase 1/2/3 Study to Evaluate the Safety, Tolerability, Immunogenicity, and Efficacy of RNA Vaccine Candidates Against COVID-19 in Healthy Adults",C4591001 Clinical Protocol,"MDV.C4591001-Pfizer,-Inc.ADaM-IG.1.1","Study C4591001 Pfizer, Inc Data Definitions",2.0.0,ADaM-IG,1.1,IG.ADFACEVD,ADFACEVD,ADFACEVD,Diary and Non-event Analysis Dataset,,,,,IT.ADFACEVD.PARAM,PARAM,Parameter,text,57,PARAM,,,True,,MT.ADFACEVD.PARAM,,CL.ADFACEVD.PARAM,ADFACEVD.PARAM,text,
FDA-CBER-2021-5683-1496005-1496178_27034_S1_M5_c4591001-safety-fa-eff-A-define.xml,"C4591001-Pfizer,-Inc.ADaM-IG.1.1","C4591001 Pfizer, Inc","A Phase 1/2/3 Study to Evaluate the Safety, Tolerability, Immunogenicity, and Efficacy of RNA Vaccine Candidates Against COVID-19 in Healthy Adults",C4591001 Clinical Protocol,"MDV.C4591001-Pfizer,-Inc.ADaM-IG.1.1","Study C4591001 Pfizer, Inc Data Definitions",2.0.0,ADaM-IG,1.1,IG.ADFACEVD,ADFACEVD,ADFACEVD,Diary and Non-event Analysis Dataset,,,,,IT.ADFACEVD.PARAMCD,PARAMCD,Parameter Code,text,8,PARAMCD,,,True,3,,,CL.ADFACEVD.PARAMCD,ADFACEVD.PARAMCD,text,"DIARE: Redness diameter cm;
DIASW: Swelling diameter cm;
G4CRR: Redness grade 4 criteria met;
G4CRS: Swelling grade 4 criteria met;
MADRE: Redness maximum diameter cm;
MADSW: Swelling maximum diameter cm;
MAXCHIL: Chills maximum severity;
MAXDIAR: Diarrhea maximum severity;
MAXSFAT: Fatigue maximum severity;
MAXSHEA: Headache maximum severity;
MAXSJP: Joint pain maximum severity;
MAXSMP: Muscle pain maximum severity;
MAXSVOM: Vomiting maximum severity;
MAXTEMP: Fever maximum temperature;
MDIRE: Redness maximum diameter;
MDISW: Swelling maximum diameter;
MEDDUR: Medications duration;
MEDTFVPN: Medications medication to treat fever or pain;
MIDRE: Redness minimum diameter cm;
MIDSW: Swelling minimum diameter cm;
MSERE: Redness maximum severity;
MSESW: Swelling maximum severity;
MSPIS: Pain at injection site maximum severity;
OCCHILLS: Chills occurrence indicator;
OCDIAR: Diarrhea occurrence indicator;
OCFATIG: Fatigue occurrence indicator;
OCFEVER: Fever occurrence indicator;
OCHEAD: Headache occurrence indicator;
OCHIS: Hospitalized for injection site pain occurrence indicator;
OCHOCHIL: Hospitalized for chills occurrence indicator;
OCHODI: Hospitalized for diarrhea occurrence indicator;
OCHOFA: Hospitalized for tiredness (fatigue) occurrence indicator;
OCHOHE: Hospitalized for headache occurrence indicator;
OCHOJP: Hospitalized for joint pain occurrence indicator;
OCHOMP: Hospitalized for muscle pain occurrence indicator;
OCHOVO: Hospitalized for vomiting occurrence indicator;
OCINS: Swelling occurrence indicator;
OCISR: Redness occurrence indicator;
OCJOPAIN: Joint pain occurrence indicator;
OCMPNIS: Muscle pain occurrence indicator;
OCPIS: Pain at injection site occurrence indicator;
OCVOMI: Vomiting occurrence indicator;
SEVCHIL: Chills severity/intensity;
SEVDIAR: Diarrhea severity/intensity;
SEVFATI: Fatigue severity/intensity;
SEVHEAD: Headache severity/intensity;
SEVJOIN: Joint pain severity/intensity;
SEVMUSP: Muscle pain severity/intensity;
SEVPIS: Pain at injection site severity/intensity;
SEVREDN: Redness severity/intensity;
SEVSWEL: Swelling severity/intensity;
SEVVOMI: Vomiting severity/intensity;
STPDMEDP: Medications stop date meds given to trt/pnt symptoms"
FDA-CBER-2021-5683-1496005-1496178_27034_S1_M5_c4591001-safety-fa-eff-A-define.xml,"C4591001-Pfizer,-Inc.ADaM-IG.1.1","C4591001 Pfizer, Inc","A Phase 1/2/3 Study to Evaluate the Safety, Tolerability, Immunogenicity, and Efficacy of RNA Vaccine Candidates Against COVID-19 in Healthy Adults",C4591001 Clinical Protocol,"MDV.C4591001-Pfizer,-Inc.ADaM-IG.1.1","Study C4591001 Pfizer, Inc Data Definitions",2.0.0,ADaM-IG,1.1,IG.ADFACEVD,ADFACEVD,ADFACEVD,Diary and Non-event Analysis Dataset,,,,,IT.ADFACEVD.PARAMN,PARAMN,Parameter (N),integer,8,PARAMN,,,True,,,,CL.ADFACEVD.PARAMN,ADFACEVD.PARAMN,integer,"1: Redness severity/intensity;
2: Redness maximum severity;
3: Redness grade 4 criteria met;
4: Redness diameter cm;
5: Redness minimum  diameter cm;
6: Redness maximum diameter;
7: Redness occurrence indicator;
9: Redness maximum diameter cm;
30: Swelling severity/intensity;
31: Swelling maximum severity;
32: Swelling grade 4 criteria met;
33: Swelling diameter cm;
34: Swelling minimum  diameter cm;
35: Swelling maximum diameter;
36: Swelling occurrence indicator;
38: Swelling maximum diameter cm;
50: Pain at injection site occurrence;
51: Pain at injection site severity/intensity;
52: Pain at injection site maximum severity;
70: Fever maximum temperature;
71: Fever occurrence indicator;
80: Fatigue severity/intensity;
81: Fatigue maximum severity;
82: Fatigue occurrence indicator;
90: Headache severity/intensity;
91: Headache maximum severity;
92: Headache occurrence indicator;
100: Chills severity/intensity;
101: Chills maximum severity;
102: Chills occurrence indicator;
182: Medications medication to treat fever or pain;
189: Medications stop date meds given to trt/pnt symptoms;
195: Medications duration;
270: Diarrhea occurrence indicator;
271: Diarrhea severity/intensity;
272: Diarrhea maximum severity;
310: Muscle pain occurrence indicator;
311: Muscle pain severity/intensity;
312: Muscle pain maximum severity;
390: Joint pain occurrence indicator;
391: Joint pain severity/intensity;
392: Joint pain maximum severity;
400: Vomiting occurrence indicator;
401: Vomiting severity/intensity;
402: Vomiting maximum severity;
410: Hospitalized for diarrhea occurrence indicator;
415: Hospitalized for headache occurrence indicator;
420: Hospitalized for injection site pain occurrence indicator;
425: Hospitalized for joint pain occurrence indicator;
430: Hospitalized for tiredness (fatigue) occurrence indicator;
440: Hospitalized for vomiting occurrence indicator;
445: Hospitalized for muscle pain occurrence indicator;
455: Hospitalized for chills occurrence indicator"
FDA-CBER-2021-5683-1496005-1496178_27034_S1_M5_c4591001-safety-fa-eff-A-define.xml,"C4591001-Pfizer,-Inc.ADaM-IG.1.1","C4591001 Pfizer, Inc","A Phase 1/2/3 Study to Evaluate the Safety, Tolerability, Immunogenicity, and Efficacy of RNA Vaccine Candidates Against COVID-19 in Healthy Adults",C4591001 Clinical Protocol,"MDV.C4591001-Pfizer,-Inc.ADaM-IG.1.1","Study C4591001 Pfizer, Inc Data Definitions",2.0.0,ADaM-IG,1.1,IG.ADFACEVD,ADFACEVD,ADFACEVD,Diary and Non-event Analysis Dataset,,,,,IT.ADFACEVD.FAOBJ,FAOBJ,Object of the Observation,text,36,FAOBJ,,,True,,MT.ADFACEVD.FAOBJ,,,,,
FDA-CBER-2021-5683-1496005-1496178_27034_S1_M5_c4591001-safety-fa-eff-A-define.xml,"C4591001-Pfizer,-Inc.ADaM-IG.1.1","C4591001 Pfizer, Inc","A Phase 1/2/3 Study to Evaluate the Safety, Tolerability, Immunogenicity, and Efficacy of RNA Vaccine Candidates Against COVID-19 in Healthy Adults",C4591001 Clinical Protocol,"MDV.C4591001-Pfizer,-Inc.ADaM-IG.1.1","Study C4591001 Pfizer, Inc Data Definitions",2.0.0,ADaM-IG,1.1,IG.ADFACEVD,ADFACEVD,ADFACEVD,Diary and Non-event Analysis Dataset,,,,,IT.ADFACEVD.PARCAT1,PARCAT1,Parameter Category 1,text,14,PARCAT1,,,True,,MT.ADFACEVD.PARCAT1,,,,,
FDA-CBER-2021-5683-1496005-1496178_27034_S1_M5_c4591001-safety-fa-eff-A-define.xml,"C4591001-Pfizer,-Inc.ADaM-IG.1.1","C4591001 Pfizer, Inc","A Phase 1/2/3 Study to Evaluate the Safety, Tolerability, Immunogenicity, and Efficacy of RNA Vaccine Candidates Against COVID-19 in Healthy Adults",C4591001 Clinical Protocol,"MDV.C4591001-Pfizer,-Inc.ADaM-IG.1.1","Study C4591001 Pfizer, Inc Data Definitions",2.0.0,ADaM-IG,1.1,IG.ADFACEVD,ADFACEVD,ADFACEVD,Diary and Non-event Analysis Dataset,,,,,IT.ADFACEVD.PARCAT2,PARCAT2,Parameter Category 2,text,19,PARCAT2,,,True,,,,,,,
FDA-CBER-2021-5683-1496005-1496178_27034_S1_M5_c4591001-safety-fa-eff-A-define.xml,"C4591001-Pfizer,-Inc.ADaM-IG.1.1","C4591001 Pfizer, Inc","A Phase 1/2/3 Study to Evaluate the Safety, Tolerability, Immunogenicity, and Efficacy of RNA Vaccine Candidates Against COVID-19 in Healthy Adults",C4591001 Clinical Protocol,"MDV.C4591001-Pfizer,-Inc.ADaM-IG.1.1","Study C4591001 Pfizer, Inc Data Definitions",2.0.0,ADaM-IG,1.1,IG.ADFACEVD,ADFACEVD,ADFACEVD,Diary and Non-event Analysis Dataset,,,,,IT.ADFACEVD.AVALC,AVALC,Analysis Value (C),text,10,AVALC,,,False,,MT.ADFACEVD.AVALC,,,,,
FDA-CBER-2021-5683-1496005-1496178_27034_S1_M5_c4591001-safety-fa-eff-A-define.xml,"C4591001-Pfizer,-Inc.ADaM-IG.1.1","C4591001 Pfizer, Inc","A Phase 1/2/3 Study to Evaluate the Safety, Tolerability, Immunogenicity, and Efficacy of RNA Vaccine Candidates Against COVID-19 in Healthy Adults",C4591001 Clinical Protocol,"MDV.C4591001-Pfizer,-Inc.ADaM-IG.1.1","Study C4591001 Pfizer, Inc Data Definitions",2.0.0,ADaM-IG,1.1,IG.ADFACEVD,ADFACEVD,ADFACEVD,Diary and Non-event Analysis Dataset,,,,,IT.ADFACEVD.AVAL,AVAL,Analysis Value,float,8,AVAL,,,False,,MT.ADFACEVD.AVAL,,,,,
FDA-CBER-2021-5683-1496005-1496178_27034_S1_M5_c4591001-safety-fa-eff-A-define.xml,"C4591001-Pfizer,-Inc.ADaM-IG.1.1","C4591001 Pfizer, Inc","A Phase 1/2/3 Study to Evaluate the Safety, Tolerability, Immunogenicity, and Efficacy of RNA Vaccine Candidates Against COVID-19 in Healthy Adults",C4591001 Clinical Protocol,"MDV.C4591001-Pfizer,-Inc.ADaM-IG.1.1","Study C4591001 Pfizer, Inc Data Definitions",2.0.0,ADaM-IG,1.1,IG.ADFACEVD,ADFACEVD,ADFACEVD,Diary and Non-event Analysis Dataset,,,,,IT.ADFACEVD.AVALCAT1,AVALCAT1,Analysis Value Category 1,text,9,AVALCAT1,,,False,,MT.ADFACEVD.AVALCAT1,,,,,
FDA-CBER-2021-5683-1496005-1496178_27034_S1_M5_c4591001-safety-fa-eff-A-define.xml,"C4591001-Pfizer,-Inc.ADaM-IG.1.1","C4591001 Pfizer, Inc","A Phase 1/2/3 Study to Evaluate the Safety, Tolerability, Immunogenicity, and Efficacy of RNA Vaccine Candidates Against COVID-19 in Healthy Adults",C4591001 Clinical Protocol,"MDV.C4591001-Pfizer,-Inc.ADaM-IG.1.1","Study C4591001 Pfizer, Inc Data Definitions",2.0.0,ADaM-IG,1.1,IG.ADFACEVD,ADFACEVD,ADFACEVD,Diary and Non-event Analysis Dataset,,,,,IT.ADFACEVD.AVALCA1N,AVALCA1N,Analysis Value Category 1 (N),integer,8,AVALCA1N,,,False,,,,,,,
FDA-CBER-2021-5683-1496005-1496178_27034_S1_M5_c4591001-safety-fa-eff-A-define.xml,"C4591001-Pfizer,-Inc.ADaM-IG.1.1","C4591001 Pfizer, Inc","A Phase 1/2/3 Study to Evaluate the Safety, Tolerability, Immunogenicity, and Efficacy of RNA Vaccine Candidates Against COVID-19 in Healthy Adults",C4591001 Clinical Protocol,"MDV.C4591001-Pfizer,-Inc.ADaM-IG.1.1","Study C4591001 Pfizer, Inc Data Definitions",2.0.0,ADaM-IG,1.1,IG.ADFACEVD,ADFACEVD,ADFACEVD,Diary and Non-event Analysis Dataset,,,,,IT.ADFACEVD.FASTAT,FASTAT,Completion Status,text,8,FASTAT,,,False,,,,,,,
FDA-CBER-2021-5683-1496005-1496178_27034_S1_M5_c4591001-safety-fa-eff-A-define.xml,"C4591001-Pfizer,-Inc.ADaM-IG.1.1","C4591001 Pfizer, Inc","A Phase 1/2/3 Study to Evaluate the Safety, Tolerability, Immunogenicity, and Efficacy of RNA Vaccine Candidates Against COVID-19 in Healthy Adults",C4591001 Clinical Protocol,"MDV.C4591001-Pfizer,-Inc.ADaM-IG.1.1","Study C4591001 Pfizer, Inc Data Definitions",2.0.0,ADaM-IG,1.1,IG.ADFACEVD,ADFACEVD,ADFACEVD,Diary and Non-event Analysis Dataset,,,,,IT.ADFACEVD.FAREASND,FAREASND,Reason Not Performed,text,41,FAREASND,,,False,,,,,,,
FDA-CBER-2021-5683-1496005-1496178_27034_S1_M5_c4591001-safety-fa-eff-A-define.xml,"C4591001-Pfizer,-Inc.ADaM-IG.1.1","C4591001 Pfizer, Inc","A Phase 1/2/3 Study to Evaluate the Safety, Tolerability, Immunogenicity, and Efficacy of RNA Vaccine Candidates Against COVID-19 in Healthy Adults",C4591001 Clinical Protocol,"MDV.C4591001-Pfizer,-Inc.ADaM-IG.1.1","Study C4591001 Pfizer, Inc Data Definitions",2.0.0,ADaM-IG,1.1,IG.ADFACEVD,ADFACEVD,ADFACEVD,Diary and Non-event Analysis Dataset,,,,,IT.ADFACEVD.FAEVAL,FAEVAL,Evaluator,text,13,FAEVAL,,,False,,,,,,,
FDA-CBER-2021-5683-1496005-1496178_27034_S1_M5_c4591001-safety-fa-eff-A-define.xml,"C4591001-Pfizer,-Inc.ADaM-IG.1.1","C4591001 Pfizer, Inc","A Phase 1/2/3 Study to Evaluate the Safety, Tolerability, Immunogenicity, and Efficacy of RNA Vaccine Candidates Against COVID-19 in Healthy Adults",C4591001 Clinical Protocol,"MDV.C4591001-Pfizer,-Inc.ADaM-IG.1.1","Study C4591001 Pfizer, Inc Data Definitions",2.0.0,ADaM-IG,1.1,IG.ADFACEVD,ADFACEVD,ADFACEVD,Diary and Non-event Analysis Dataset,,,,,IT.ADFACEVD.AVISITN,AVISITN,Analysis Visit (N),float,8,AVISITN,,,True,,,,CL.ADFACEVD.AVISITN,ADFACEVD.AVISITN,float,"0.001: UNPLANNED VISIT 0.001;
1.001: UNPLANNED VISIT 1.001;
60748: V1_DAY1_VAX1_S;
60748.001: UNPLANNED VISIT 60748.001;
60749.001: UNPLANNED VISIT 60749.001;
60750.001: UNPLANNED VISIT 60750.001;
60751: V4_WEEK3_VAX2_S;
60753: V6_WEEK2_POSTVAX2_S;
60765: V4_WEEK3_VAX2_S_R;
60765.001: UNPLANNED VISIT 60765.001;
60765.002: UNPLANNED VISIT 60765.002;
60765.003: UNPLANNED VISIT 60765.003;
60766: V2_VAX2_L;
60766.001: UNPLANNED VISIT 60766.001;
60766.002: UNPLANNED VISIT 60766.002;
60767: V3_MONTH1_POSTVAX2_L;
1165454: V4_WEEK3_VAX2_S_R;
1165456: V6_WEEK2_POSTVAX2_S_R"
FDA-CBER-2021-5683-1496005-1496178_27034_S1_M5_c4591001-safety-fa-eff-A-define.xml,"C4591001-Pfizer,-Inc.ADaM-IG.1.1","C4591001 Pfizer, Inc","A Phase 1/2/3 Study to Evaluate the Safety, Tolerability, Immunogenicity, and Efficacy of RNA Vaccine Candidates Against COVID-19 in Healthy Adults",C4591001 Clinical Protocol,"MDV.C4591001-Pfizer,-Inc.ADaM-IG.1.1","Study C4591001 Pfizer, Inc Data Definitions",2.0.0,ADaM-IG,1.1,IG.ADFACEVD,ADFACEVD,ADFACEVD,Diary and Non-event Analysis Dataset,,,,,IT.ADFACEVD.AVISIT,AVISIT,Analysis Visit,text,25,AVISIT,,,True,,MT.ADFACEVD.AVISIT,,CL.ADFACEVD.AVISIT,ADFACEVD.AVISIT,text,
FDA-CBER-2021-5683-1496005-1496178_27034_S1_M5_c4591001-safety-fa-eff-A-define.xml,"C4591001-Pfizer,-Inc.ADaM-IG.1.1","C4591001 Pfizer, Inc","A Phase 1/2/3 Study to Evaluate the Safety, Tolerability, Immunogenicity, and Efficacy of RNA Vaccine Candidates Against COVID-19 in Healthy Adults",C4591001 Clinical Protocol,"MDV.C4591001-Pfizer,-Inc.ADaM-IG.1.1","Study C4591001 Pfizer, Inc Data Definitions",2.0.0,ADaM-IG,1.1,IG.ADFACEVD,ADFACEVD,ADFACEVD,Diary and Non-event Analysis Dataset,,,,,IT.ADFACEVD.ADT,ADT,Analysis Date,integer,8,ADT,,,False,,MT.ADFACEVD.ADT,,,,,
FDA-CBER-2021-5683-1496005-1496178_27034_S1_M5_c4591001-safety-fa-eff-A-define.xml,"C4591001-Pfizer,-Inc.ADaM-IG.1.1","C4591001 Pfizer, Inc","A Phase 1/2/3 Study to Evaluate the Safety, Tolerability, Immunogenicity, and Efficacy of RNA Vaccine Candidates Against COVID-19 in Healthy Adults",C4591001 Clinical Protocol,"MDV.C4591001-Pfizer,-Inc.ADaM-IG.1.1","Study C4591001 Pfizer, Inc Data Definitions",2.0.0,ADaM-IG,1.1,IG.ADFACEVD,ADFACEVD,ADFACEVD,Diary and Non-event Analysis Dataset,,,,,IT.ADFACEVD.ADTM,ADTM,Analysis Datetime,integer,8,ADTM,,,False,,MT.ADFACEVD.ADTM,,,,,
FDA-CBER-2021-5683-1496005-1496178_27034_S1_M5_c4591001-safety-fa-eff-A-define.xml,"C4591001-Pfizer,-Inc.ADaM-IG.1.1","C4591001 Pfizer, Inc","A Phase 1/2/3 Study to Evaluate the Safety, Tolerability, Immunogenicity, and Efficacy of RNA Vaccine Candidates Against COVID-19 in Healthy Adults",C4591001 Clinical Protocol,"MDV.C4591001-Pfizer,-Inc.ADaM-IG.1.1","Study C4591001 Pfizer, Inc Data Definitions",2.0.0,ADaM-IG,1.1,IG.ADFACEVD,ADFACEVD,ADFACEVD,Diary and Non-event Analysis Dataset,,,,,IT.ADFACEVD.ADY,ADY,Analysis Relative Day,integer,8,ADY,,,False,,,,,,,
FDA-CBER-2021-5683-1496005-1496178_27034_S1_M5_c4591001-safety-fa-eff-A-define.xml,"C4591001-Pfizer,-Inc.ADaM-IG.1.1","C4591001 Pfizer, Inc","A Phase 1/2/3 Study to Evaluate the Safety, Tolerability, Immunogenicity, and Efficacy of RNA Vaccine Candidates Against COVID-19 in Healthy Adults",C4591001 Clinical Protocol,"MDV.C4591001-Pfizer,-Inc.ADaM-IG.1.1","Study C4591001 Pfizer, Inc Data Definitions",2.0.0,ADaM-IG,1.1,IG.ADFACEVD,ADFACEVD,ADFACEVD,Diary and Non-event Analysis Dataset,,,,,IT.ADFACEVD.ATPT,ATPT,Analysis Timepoint,text,5,ATPT,,,False,4,MT.ADFACEVD.ATPT,,,,,
FDA-CBER-2021-5683-1496005-1496178_27034_S1_M5_c4591001-safety-fa-eff-A-define.xml,"C4591001-Pfizer,-Inc.ADaM-IG.1.1","C4591001 Pfizer, Inc","A Phase 1/2/3 Study to Evaluate the Safety, Tolerability, Immunogenicity, and Efficacy of RNA Vaccine Candidates Against COVID-19 in Healthy Adults",C4591001 Clinical Protocol,"MDV.C4591001-Pfizer,-Inc.ADaM-IG.1.1","Study C4591001 Pfizer, Inc Data Definitions",2.0.0,ADaM-IG,1.1,IG.ADFACEVD,ADFACEVD,ADFACEVD,Diary and Non-event Analysis Dataset,,,,,IT.ADFACEVD.ATPTN,ATPTN,Analysis Timepoint (N),integer,8,ATPTN,,,False,,MT.ADFACEVD.ATPTN,,,,,
FDA-CBER-2021-5683-1496005-1496178_27034_S1_M5_c4591001-safety-fa-eff-A-define.xml,"C4591001-Pfizer,-Inc.ADaM-IG.1.1","C4591001 Pfizer, Inc","A Phase 1/2/3 Study to Evaluate the Safety, Tolerability, Immunogenicity, and Efficacy of RNA Vaccine Candidates Against COVID-19 in Healthy Adults",C4591001 Clinical Protocol,"MDV.C4591001-Pfizer,-Inc.ADaM-IG.1.1","Study C4591001 Pfizer, Inc Data Definitions",2.0.0,ADaM-IG,1.1,IG.ADFACEVD,ADFACEVD,ADFACEVD,Diary and Non-event Analysis Dataset,,,,,IT.ADFACEVD.ATPTREF,ATPTREF,Analysis Timepoint Reference,text,13,ATPTREF,,,True,,,,,,,
FDA-CBER-2021-5683-1496005-1496178_27034_S1_M5_c4591001-safety-fa-eff-A-define.xml,"C4591001-Pfizer,-Inc.ADaM-IG.1.1","C4591001 Pfizer, Inc","A Phase 1/2/3 Study to Evaluate the Safety, Tolerability, Immunogenicity, and Efficacy of RNA Vaccine Candidates Against COVID-19 in Healthy Adults",C4591001 Clinical Protocol,"MDV.C4591001-Pfizer,-Inc.ADaM-IG.1.1","Study C4591001 Pfizer, Inc Data Definitions",2.0.0,ADaM-IG,1.1,IG.ADFACEVD,ADFACEVD,ADFACEVD,Diary and Non-event Analysis Dataset,,,,,IT.ADFACEVD.FAEVINTX,FAEVINTX,Evaluation Interval Text,text,17,FAEVINTX,,,False,,,,,,,
FDA-CBER-2021-5683-1496005-1496178_27034_S1_M5_c4591001-safety-fa-eff-A-define.xml,"C4591001-Pfizer,-Inc.ADaM-IG.1.1","C4591001 Pfizer, Inc","A Phase 1/2/3 Study to Evaluate the Safety, Tolerability, Immunogenicity, and Efficacy of RNA Vaccine Candidates Against COVID-19 in Healthy Adults",C4591001 Clinical Protocol,"MDV.C4591001-Pfizer,-Inc.ADaM-IG.1.1","Study C4591001 Pfizer, Inc Data Definitions",2.0.0,ADaM-IG,1.1,IG.ADFACEVD,ADFACEVD,ADFACEVD,Diary and Non-event Analysis Dataset,,,,,IT.ADFACEVD.DTYPE,DTYPE,Derivation Type,text,7,DTYPE,,,False,,MT.ADFACEVD.DTYPE,,CL.ADFACEVD.DTYPE,ADFACEVD.DTYPE,text,MAXIMUM: Maximum Value Derivation Technique
FDA-CBER-2021-5683-1496005-1496178_27034_S1_M5_c4591001-safety-fa-eff-A-define.xml,"C4591001-Pfizer,-Inc.ADaM-IG.1.1","C4591001 Pfizer, Inc","A Phase 1/2/3 Study to Evaluate the Safety, Tolerability, Immunogenicity, and Efficacy of RNA Vaccine Candidates Against COVID-19 in Healthy Adults",C4591001 Clinical Protocol,"MDV.C4591001-Pfizer,-Inc.ADaM-IG.1.1","Study C4591001 Pfizer, Inc Data Definitions",2.0.0,ADaM-IG,1.1,IG.ADFACEVD,ADFACEVD,ADFACEVD,Diary and Non-event Analysis Dataset,,,,,IT.ADFACEVD.FASTINT,FASTINT,Evaluation Interval Start,text,3,FASTINT,,,False,,MT.ADFACEVD.FASTINT,,,,,
FDA-CBER-2021-5683-1496005-1496178_27034_S1_M5_c4591001-safety-fa-eff-A-define.xml,"C4591001-Pfizer,-Inc.ADaM-IG.1.1","C4591001 Pfizer, Inc","A Phase 1/2/3 Study to Evaluate the Safety, Tolerability, Immunogenicity, and Efficacy of RNA Vaccine Candidates Against COVID-19 in Healthy Adults",C4591001 Clinical Protocol,"MDV.C4591001-Pfizer,-Inc.ADaM-IG.1.1","Study C4591001 Pfizer, Inc Data Definitions",2.0.0,ADaM-IG,1.1,IG.ADFACEVD,ADFACEVD,ADFACEVD,Diary and Non-event Analysis Dataset,,,,,IT.ADFACEVD.FAENINT,FAENINT,Evaluation Interval End,text,3,FAENINT,,,False,,MT.ADFACEVD.FAENINT,,,,,
FDA-CBER-2021-5683-1496005-1496178_27034_S1_M5_c4591001-safety-fa-eff-A-define.xml,"C4591001-Pfizer,-Inc.ADaM-IG.1.1","C4591001 Pfizer, Inc","A Phase 1/2/3 Study to Evaluate the Safety, Tolerability, Immunogenicity, and Efficacy of RNA Vaccine Candidates Against COVID-19 in Healthy Adults",C4591001 Clinical Protocol,"MDV.C4591001-Pfizer,-Inc.ADaM-IG.1.1","Study C4591001 Pfizer, Inc Data Definitions",2.0.0,ADaM-IG,1.1,IG.ADFACEVD,ADFACEVD,ADFACEVD,Diary and Non-event Analysis Dataset,,,,,IT.ADFACEVD.EXDOSE,EXDOSE,Dose,float,8,EXDOSE,,,True,,MT.ADFACEVD.EXDOSE,,,,,
FDA-CBER-2021-5683-1496005-1496178_27034_S1_M5_c4591001-safety-fa-eff-A-define.xml,"C4591001-Pfizer,-Inc.ADaM-IG.1.1","C4591001 Pfizer, Inc","A Phase 1/2/3 Study to Evaluate the Safety, Tolerability, Immunogenicity, and Efficacy of RNA Vaccine Candidates Against COVID-19 in Healthy Adults",C4591001 Clinical Protocol,"MDV.C4591001-Pfizer,-Inc.ADaM-IG.1.1","Study C4591001 Pfizer, Inc Data Definitions",2.0.0,ADaM-IG,1.1,IG.ADFACEVD,ADFACEVD,ADFACEVD,Diary and Non-event Analysis Dataset,,,,,IT.ADFACEVD.EXTRT,EXTRT,Name of Treatment,text,13,EXTRT,,,True,,,,,,,
FDA-CBER-2021-5683-1496005-1496178_27034_S1_M5_c4591001-safety-fa-eff-A-define.xml,"C4591001-Pfizer,-Inc.ADaM-IG.1.1","C4591001 Pfizer, Inc","A Phase 1/2/3 Study to Evaluate the Safety, Tolerability, Immunogenicity, and Efficacy of RNA Vaccine Candidates Against COVID-19 in Healthy Adults",C4591001 Clinical Protocol,"MDV.C4591001-Pfizer,-Inc.ADaM-IG.1.1","Study C4591001 Pfizer, Inc Data Definitions",2.0.0,ADaM-IG,1.1,IG.ADFACEVD,ADFACEVD,ADFACEVD,Diary and Non-event Analysis Dataset,,,,,IT.ADFACEVD.EXDOSU,EXDOSU,Dose Units,text,3,EXDOSU,,,True,,,,,,,
FDA-CBER-2021-5683-1496005-1496178_27034_S1_M5_c4591001-safety-fa-eff-A-define.xml,"C4591001-Pfizer,-Inc.ADaM-IG.1.1","C4591001 Pfizer, Inc","A Phase 1/2/3 Study to Evaluate the Safety, Tolerability, Immunogenicity, and Efficacy of RNA Vaccine Candidates Against COVID-19 in Healthy Adults",C4591001 Clinical Protocol,"MDV.C4591001-Pfizer,-Inc.ADaM-IG.1.1","Study C4591001 Pfizer, Inc Data Definitions",2.0.0,ADaM-IG,1.1,IG.ADFACEVD,ADFACEVD,ADFACEVD,Diary and Non-event Analysis Dataset,,,,,IT.ADFACEVD.EXSTDTC,EXSTDTC,Start Date/Time of Treatment,datetime,,EXSTDTC,,,True,,,,,,,
